{
    "AutoApprovalTime": "2015-03-03T08:45:09Z",
    "AssignmentId": "3B837J3LDP5ZJ10NKDQIA1XFWULSRQ",
    "WorkerId": "A13EP1HO0F4GX",
    "answers": {
        "data": {
            "trials": [],
            "condition": "think",
            "allData": {
                "education": "college_bachDegree",
                "englishNative": "no",
                "trialData": [
                    {
                        "rt": 3810,
                        "swatch": "BI2A00013",
                        "trialNum": 1,
                        "response": "maybe no",
                        "responseCoded": -1
                    },
                    {
                        "rt": 1727,
                        "swatch": "BI2A00003",
                        "trialNum": 2,
                        "response": "maybe yes",
                        "responseCoded": 1
                    },
                    {
                        "rt": 1795,
                        "swatch": "BI2A00024",
                        "trialNum": 3,
                        "response": "equally yes/no",
                        "responseCoded": 0
                    },
                    {
                        "rt": 1819,
                        "swatch": "BI2A00017",
                        "trialNum": 4,
                        "response": "probably no",
                        "responseCoded": -2
                    },
                    {
                        "rt": 1491,
                        "swatch": "BI2A00028",
                        "trialNum": 5,
                        "response": "probably no",
                        "responseCoded": -2
                    },
                    {
                        "rt": 1152,
                        "swatch": "BI2A00043",
                        "trialNum": 6,
                        "response": "definitely no",
                        "responseCoded": 3
                    },
                    {
                        "rt": 631,
                        "swatch": "BI2A00009",
                        "trialNum": 7,
                        "response": "definitely no",
                        "responseCoded": 3
                    },
                    {
                        "rt": 1080,
                        "swatch": "BI2A00047",
                        "trialNum": 8,
                        "response": "definitely no",
                        "responseCoded": 3
                    },
                    {
                        "rt": 1713,
                        "swatch": "BI2A00019",
                        "trialNum": 9,
                        "response": "maybe yes",
                        "responseCoded": 1
                    },
                    {
                        "rt": 1344,
                        "swatch": "BI2A00031",
                        "trialNum": 10,
                        "response": "definitely no",
                        "responseCoded": 3
                    },
                    {
                        "rt": 1015,
                        "swatch": "BI2A00038",
                        "trialNum": 11,
                        "response": "definitely no",
                        "responseCoded": 3
                    },
                    {
                        "rt": 996,
                        "swatch": "BI2A00042",
                        "trialNum": 12,
                        "response": "definitely no",
                        "responseCoded": 3
                    },
                    {
                        "rt": 1480,
                        "swatch": "BI2A00027",
                        "trialNum": 13,
                        "response": "probably no",
                        "responseCoded": -2
                    },
                    {
                        "rt": 1052,
                        "swatch": "BI2A00010",
                        "trialNum": 14,
                        "response": "definitely no",
                        "responseCoded": 3
                    },
                    {
                        "rt": 2353,
                        "swatch": "BI2A00016",
                        "trialNum": 15,
                        "response": "maybe no",
                        "responseCoded": -1
                    },
                    {
                        "rt": 1426,
                        "swatch": "BI2A00004",
                        "trialNum": 16,
                        "response": "maybe yes",
                        "responseCoded": 1
                    },
                    {
                        "rt": 1396,
                        "swatch": "BI2A00039",
                        "trialNum": 17,
                        "response": "definitely no",
                        "responseCoded": 3
                    },
                    {
                        "rt": 821,
                        "swatch": "BI2A00037",
                        "trialNum": 18,
                        "response": "definitely no",
                        "responseCoded": 3
                    },
                    {
                        "rt": 2536,
                        "swatch": "BI2A00006",
                        "trialNum": 19,
                        "response": "definitely yes",
                        "responseCoded": 3
                    },
                    {
                        "rt": 968,
                        "swatch": "BI2A00007",
                        "trialNum": 20,
                        "response": "definitely yes",
                        "responseCoded": 3
                    },
                    {
                        "rt": 1857,
                        "swatch": "BI2A00026",
                        "trialNum": 21,
                        "response": "maybe yes",
                        "responseCoded": 1
                    },
                    {
                        "rt": 1455,
                        "swatch": "BI2A00030",
                        "trialNum": 22,
                        "response": "definitely no",
                        "responseCoded": 3
                    },
                    {
                        "rt": 812,
                        "swatch": "BI2A00046",
                        "trialNum": 23,
                        "response": "definitely no",
                        "responseCoded": 3
                    },
                    {
                        "rt": 870,
                        "swatch": "BI2A00023",
                        "trialNum": 24,
                        "response": "definitely no",
                        "responseCoded": 3
                    },
                    {
                        "rt": 2393,
                        "swatch": "BI2A00012",
                        "trialNum": 25,
                        "response": "probably no",
                        "responseCoded": -2
                    },
                    {
                        "rt": 1756,
                        "swatch": "BI2A00005",
                        "trialNum": 26,
                        "response": "probably yes",
                        "responseCoded": 2
                    },
                    {
                        "rt": 1311,
                        "swatch": "BI2A00035",
                        "trialNum": 27,
                        "response": "definitely no",
                        "responseCoded": 3
                    },
                    {
                        "rt": 1002,
                        "swatch": "BI2A00025",
                        "trialNum": 28,
                        "response": "definitely no",
                        "responseCoded": 3
                    },
                    {
                        "rt": 840,
                        "swatch": "BI2A00021",
                        "trialNum": 29,
                        "response": "definitely no",
                        "responseCoded": 3
                    },
                    {
                        "rt": 1680,
                        "swatch": "BI2A00015",
                        "trialNum": 30,
                        "response": "maybe yes",
                        "responseCoded": 1
                    },
                    {
                        "rt": 1261,
                        "swatch": "BI2A00034",
                        "trialNum": 31,
                        "response": "definitely no",
                        "responseCoded": 3
                    },
                    {
                        "rt": 1564,
                        "swatch": "BI2A00014",
                        "trialNum": 32,
                        "response": "equally yes/no",
                        "responseCoded": 0
                    },
                    {
                        "rt": 1996,
                        "swatch": "BI2A00011",
                        "trialNum": 33,
                        "response": "definitely yes",
                        "responseCoded": 3
                    },
                    {
                        "rt": 995,
                        "swatch": "BI2A00008",
                        "trialNum": 34,
                        "response": "definitely yes",
                        "responseCoded": 3
                    },
                    {
                        "rt": 1547,
                        "swatch": "BI2A00029",
                        "trialNum": 35,
                        "response": "definitely no",
                        "responseCoded": 3
                    },
                    {
                        "rt": 826,
                        "swatch": "BI2A00041",
                        "trialNum": 36,
                        "response": "definitely no",
                        "responseCoded": 3
                    },
                    {
                        "rt": 771,
                        "swatch": "BI2A00018",
                        "trialNum": 37,
                        "response": "definitely no",
                        "responseCoded": 3
                    },
                    {
                        "rt": 771,
                        "swatch": "BI2A00040",
                        "trialNum": 38,
                        "response": "definitely no",
                        "responseCoded": 3
                    },
                    {
                        "rt": 693,
                        "swatch": "BI2A00048",
                        "trialNum": 39,
                        "response": "definitely no",
                        "responseCoded": 3
                    },
                    {
                        "rt": 865,
                        "swatch": "BI2A00020",
                        "trialNum": 40,
                        "response": "definitely no",
                        "responseCoded": 3
                    },
                    {
                        "rt": 1689,
                        "swatch": "BI2A00001",
                        "trialNum": 41,
                        "response": "definitely yes",
                        "responseCoded": 3
                    },
                    {
                        "rt": 2370,
                        "swatch": "BI2A00022",
                        "trialNum": 42,
                        "response": "maybe yes",
                        "responseCoded": 1
                    },
                    {
                        "rt": 1571,
                        "swatch": "BI2A00036",
                        "trialNum": 43,
                        "response": "definitely no",
                        "responseCoded": 3
                    },
                    {
                        "rt": 929,
                        "swatch": "BI2A00045",
                        "trialNum": 44,
                        "response": "definitely no",
                        "responseCoded": 3
                    },
                    {
                        "rt": 1830,
                        "swatch": "BI2A00002",
                        "trialNum": 45,
                        "response": "definitely yes",
                        "responseCoded": 3
                    },
                    {
                        "rt": 1281,
                        "swatch": "BI2A00033",
                        "trialNum": 46,
                        "response": "definitely no",
                        "responseCoded": 3
                    },
                    {
                        "rt": 865,
                        "swatch": "BI2A00032",
                        "trialNum": 47,
                        "response": "definitely no",
                        "responseCoded": 3
                    },
                    {
                        "rt": 1014,
                        "swatch": "BI2A00044",
                        "trialNum": 48,
                        "response": "definitely no",
                        "responseCoded": 3
                    }
                ],
                "gender": "male",
                "age": "28",
                "comments": "nope",
                "religion": [
                    "christianity_other",
                    "hinduism"
                ],
                "condition": "think",
                "fingerprintData": {
                    "ip": "50.131.42.168",
                    "screenHeight": 800,
                    "plugins": [
                        {
                            "description": "Enables Widevine licenses for playback of HTML audio/video content. (version: 1.4.6.758)",
                            "filename": "widevinecdmadapter.plugin"
                        },
                        {
                            "description": "Shockwave Flash 16.0 r0",
                            "filename": "PepperFlashPlayer.plugin"
                        },
                        {
                            "description": "This plugin allows you to securely access other computers that have been shared with you. To use this plugin you must first install the <a href=\"https://chrome.google.com/remotedesktop\">Chrome Remote Desktop</a> webapp.",
                            "filename": "internal-remoting-viewer"
                        },
                        {
                            "description": "",
                            "filename": "internal-nacl-plugin"
                        },
                        {
                            "description": "",
                            "filename": "PDF.plugin"
                        },
                        {
                            "description": "Adobe\ufffd Acrobat\ufffd Plug-in for Web Browsers, Version 11.0.10",
                            "filename": "AdobePDFViewerNPAPI.plugin"
                        },
                        {
                            "description": "Provides information about the default web browser",
                            "filename": "Default Browser.plugin"
                        },
                        {
                            "description": "Displays Java applet content, or a placeholder if Java is not installed.",
                            "filename": "JavaAppletPlugin.plugin"
                        },
                        {
                            "description": "Microsoft Office for Mac SharePoint Browser Plug-in",
                            "filename": "SharePointBrowserPlugin.plugin"
                        }
                    ],
                    "timezone": 480,
                    "colorDepth": 24,
                    "screenWidth": 1280,
                    "geo": {
                        "city": "Sunnyvale",
                        "region_code": "CA",
                        "region_name": "California",
                        "ip": "50.131.42.168",
                        "time_zone": "America/Los_Angeles",
                        "longitude": -122.031,
                        "metro_code": 807,
                        "latitude": 37.354,
                        "country_code": "US",
                        "country_name": "United States",
                        "zip_code": "94087"
                    },
                    "browser": "Mozilla/5.0 (Macintosh; Intel Mac OS X 10_10_2) AppleWebKit/537.36 (KHTML, like Gecko) Chrome/40.0.2214.115 Safari/537.36"
                },
                "ethnicity": [
                    "nativeAmerican"
                ]
            }
        }
    },
    "AcceptTime": "2015-03-03T08:38:13Z",
    "HITId": "3PA41K45VNDQ262NTGJHLV5MUJ5P7J",
    "Assignment": "",
    "AssignmentStatus": "Submitted",
    "SubmitTime": "2015-03-03T08:40:09Z"
}