{
    "AutoApprovalTime": "2015-03-03T09:14:00Z",
    "AssignmentId": "31LM9EDVOM1L50P54C5J94O18PLNJC",
    "WorkerId": "A1CNEUGI7LWLR7",
    "answers": {
        "data": {
            "trials": [],
            "condition": "happy",
            "allData": {
                "education": "college_bachDegree",
                "englishNative": "no",
                "trialData": [
                    {
                        "rt": 9899,
                        "swatch": "BI2A00033",
                        "trialNum": 1,
                        "response": "probably no",
                        "responseCoded": -2
                    },
                    {
                        "rt": 2179,
                        "swatch": "BI2A00041",
                        "trialNum": 2,
                        "response": "probably no",
                        "responseCoded": -2
                    },
                    {
                        "rt": 1428,
                        "swatch": "BI2A00015",
                        "trialNum": 3,
                        "response": "definitely no",
                        "responseCoded": 3
                    },
                    {
                        "rt": 1392,
                        "swatch": "BI2A00008",
                        "trialNum": 4,
                        "response": "definitely no",
                        "responseCoded": 3
                    },
                    {
                        "rt": 2480,
                        "swatch": "BI2A00016",
                        "trialNum": 5,
                        "response": "equally yes/no",
                        "responseCoded": 0
                    },
                    {
                        "rt": 1666,
                        "swatch": "BI2A00031",
                        "trialNum": 6,
                        "response": "maybe yes",
                        "responseCoded": 1
                    },
                    {
                        "rt": 1743,
                        "swatch": "BI2A00003",
                        "trialNum": 7,
                        "response": "probably no",
                        "responseCoded": -2
                    },
                    {
                        "rt": 1074,
                        "swatch": "BI2A00005",
                        "trialNum": 8,
                        "response": "definitely no",
                        "responseCoded": 3
                    },
                    {
                        "rt": 2209,
                        "swatch": "BI2A00038",
                        "trialNum": 9,
                        "response": "equally yes/no",
                        "responseCoded": 0
                    },
                    {
                        "rt": 2561,
                        "swatch": "BI2A00046",
                        "trialNum": 10,
                        "response": "probably yes",
                        "responseCoded": 2
                    },
                    {
                        "rt": 1479,
                        "swatch": "BI2A00001",
                        "trialNum": 11,
                        "response": "probably no",
                        "responseCoded": -2
                    },
                    {
                        "rt": 1962,
                        "swatch": "BI2A00011",
                        "trialNum": 12,
                        "response": "maybe yes",
                        "responseCoded": 1
                    },
                    {
                        "rt": 1484,
                        "swatch": "BI2A00044",
                        "trialNum": 13,
                        "response": "maybe yes",
                        "responseCoded": 1
                    },
                    {
                        "rt": 1784,
                        "swatch": "BI2A00032",
                        "trialNum": 14,
                        "response": "equally yes/no",
                        "responseCoded": 0
                    },
                    {
                        "rt": 1569,
                        "swatch": "BI2A00030",
                        "trialNum": 15,
                        "response": "probably yes",
                        "responseCoded": 2
                    },
                    {
                        "rt": 1238,
                        "swatch": "BI2A00043",
                        "trialNum": 16,
                        "response": "definitely yes",
                        "responseCoded": 3
                    },
                    {
                        "rt": 2201,
                        "swatch": "BI2A00047",
                        "trialNum": 17,
                        "response": "probably yes",
                        "responseCoded": 2
                    },
                    {
                        "rt": 1577,
                        "swatch": "BI2A00020",
                        "trialNum": 18,
                        "response": "probably no",
                        "responseCoded": -2
                    },
                    {
                        "rt": 2801,
                        "swatch": "BI2A00024",
                        "trialNum": 19,
                        "response": "equally yes/no",
                        "responseCoded": 0
                    },
                    {
                        "rt": 1227,
                        "swatch": "BI2A00035",
                        "trialNum": 20,
                        "response": "maybe yes",
                        "responseCoded": 1
                    },
                    {
                        "rt": 1228,
                        "swatch": "BI2A00007",
                        "trialNum": 21,
                        "response": "maybe yes",
                        "responseCoded": 1
                    },
                    {
                        "rt": 1402,
                        "swatch": "BI2A00037",
                        "trialNum": 22,
                        "response": "maybe no",
                        "responseCoded": -1
                    },
                    {
                        "rt": 1410,
                        "swatch": "BI2A00036",
                        "trialNum": 23,
                        "response": "probably no",
                        "responseCoded": -2
                    },
                    {
                        "rt": 1088,
                        "swatch": "BI2A00019",
                        "trialNum": 24,
                        "response": "probably no",
                        "responseCoded": -2
                    },
                    {
                        "rt": 1469,
                        "swatch": "BI2A00029",
                        "trialNum": 25,
                        "response": "probably no",
                        "responseCoded": -2
                    },
                    {
                        "rt": 1994,
                        "swatch": "BI2A00028",
                        "trialNum": 26,
                        "response": "equally yes/no",
                        "responseCoded": 0
                    },
                    {
                        "rt": 1530,
                        "swatch": "BI2A00027",
                        "trialNum": 27,
                        "response": "maybe yes",
                        "responseCoded": 1
                    },
                    {
                        "rt": 1443,
                        "swatch": "BI2A00039",
                        "trialNum": 28,
                        "response": "probably yes",
                        "responseCoded": 2
                    },
                    {
                        "rt": 1720,
                        "swatch": "BI2A00042",
                        "trialNum": 29,
                        "response": "probably yes",
                        "responseCoded": 2
                    },
                    {
                        "rt": 1403,
                        "swatch": "BI2A00048",
                        "trialNum": 30,
                        "response": "probably yes",
                        "responseCoded": 2
                    },
                    {
                        "rt": 2108,
                        "swatch": "BI2A00002",
                        "trialNum": 31,
                        "response": "definitely no",
                        "responseCoded": 3
                    },
                    {
                        "rt": 1398,
                        "swatch": "BI2A00025",
                        "trialNum": 32,
                        "response": "definitely no",
                        "responseCoded": 3
                    },
                    {
                        "rt": 1760,
                        "swatch": "BI2A00009",
                        "trialNum": 33,
                        "response": "probably yes",
                        "responseCoded": 2
                    },
                    {
                        "rt": 1857,
                        "swatch": "BI2A00012",
                        "trialNum": 34,
                        "response": "probably no",
                        "responseCoded": -2
                    },
                    {
                        "rt": 1545,
                        "swatch": "BI2A00026",
                        "trialNum": 35,
                        "response": "definitely no",
                        "responseCoded": 3
                    },
                    {
                        "rt": 1696,
                        "swatch": "BI2A00022",
                        "trialNum": 36,
                        "response": "equally yes/no",
                        "responseCoded": 0
                    },
                    {
                        "rt": 1121,
                        "swatch": "BI2A00017",
                        "trialNum": 37,
                        "response": "equally yes/no",
                        "responseCoded": 0
                    },
                    {
                        "rt": 2577,
                        "swatch": "BI2A00006",
                        "trialNum": 38,
                        "response": "probably yes",
                        "responseCoded": 2
                    },
                    {
                        "rt": 2736,
                        "swatch": "BI2A00013",
                        "trialNum": 39,
                        "response": "maybe no",
                        "responseCoded": -1
                    },
                    {
                        "rt": 1570,
                        "swatch": "BI2A00004",
                        "trialNum": 40,
                        "response": "probably no",
                        "responseCoded": -2
                    },
                    {
                        "rt": 1992,
                        "swatch": "BI2A00040",
                        "trialNum": 41,
                        "response": "maybe yes",
                        "responseCoded": 1
                    },
                    {
                        "rt": 1641,
                        "swatch": "BI2A00021",
                        "trialNum": 42,
                        "response": "maybe yes",
                        "responseCoded": 1
                    },
                    {
                        "rt": 1700,
                        "swatch": "BI2A00010",
                        "trialNum": 43,
                        "response": "maybe no",
                        "responseCoded": -1
                    },
                    {
                        "rt": 1390,
                        "swatch": "BI2A00045",
                        "trialNum": 44,
                        "response": "probably yes",
                        "responseCoded": 2
                    },
                    {
                        "rt": 2490,
                        "swatch": "BI2A00034",
                        "trialNum": 45,
                        "response": "equally yes/no",
                        "responseCoded": 0
                    },
                    {
                        "rt": 1450,
                        "swatch": "BI2A00018",
                        "trialNum": 46,
                        "response": "equally yes/no",
                        "responseCoded": 0
                    },
                    {
                        "rt": 1646,
                        "swatch": "BI2A00023",
                        "trialNum": 47,
                        "response": "probably no",
                        "responseCoded": -2
                    },
                    {
                        "rt": 1593,
                        "swatch": "BI2A00014",
                        "trialNum": 48,
                        "response": "maybe no",
                        "responseCoded": -1
                    }
                ],
                "gender": "male",
                "age": "26",
                "comments": "no",
                "religion": [
                    "hinduism"
                ],
                "condition": "happy",
                "fingerprintData": {
                    "ip": "183.83.232.244",
                    "screenHeight": 768,
                    "plugins": [
                        {
                            "description": "Adobe PDF Plug-In For Firefox and Netscape 11.0.10",
                            "filename": "nppdf32.dll"
                        },
                        {
                            "description": "Adobe PDF Plug-In For Firefox and Netscape 11.0.10",
                            "filename": "nppdf32.dll"
                        },
                        {
                            "description": "Version 5.40.2.0",
                            "filename": "npgoogletalk.dll"
                        },
                        {
                            "description": "Version 5.40.2.0",
                            "filename": "npo1d.dll"
                        },
                        {
                            "description": "Google Update",
                            "filename": "npGoogleUpdate3.dll"
                        },
                        {
                            "description": "Google Update",
                            "filename": "npGoogleUpdate3.dll"
                        },
                        {
                            "description": "NPRuntime Script Plug-in Library for Java(TM) Deploy",
                            "filename": "npdeployJava1.dll"
                        },
                        {
                            "description": "Next Generation Java Plug-in 11.31.2 for Mozilla browsers",
                            "filename": "npjp2.dll"
                        },
                        {
                            "description": "Shockwave Flash 16.0 r0",
                            "filename": "NPSWF32_16_0_0_305.dll"
                        },
                        {
                            "description": "VLC media player Web Plugin 2.0.2",
                            "filename": "npvlc.dll"
                        }
                    ],
                    "timezone": -330,
                    "colorDepth": 24,
                    "screenWidth": 1366,
                    "geo": {
                        "city": "Hyderabad",
                        "region_code": "",
                        "region_name": "Telangana",
                        "ip": "183.83.232.244",
                        "time_zone": "Asia/Kolkata",
                        "longitude": 78.474,
                        "metro_code": 0,
                        "latitude": 17.375,
                        "country_code": "IN",
                        "country_name": "India",
                        "zip_code": ""
                    },
                    "browser": "Mozilla/5.0 (Windows NT 10.0; WOW64; rv:36.0) Gecko/20100101 Firefox/36.0"
                },
                "ethnicity": [
                    "asian_southAsian"
                ]
            }
        }
    },
    "AcceptTime": "2015-03-03T09:05:32Z",
    "HITId": "3T8DUCXY0NFS8HJNPUVH4PK7OP69T8",
    "Assignment": "",
    "AssignmentStatus": "Submitted",
    "SubmitTime": "2015-03-03T09:09:00Z"
}