{
    "AutoApprovalTime": "2015-03-03T09:25:23Z",
    "AssignmentId": "32AT8R96GMIRZTS4O7QJF07IC4RSUP",
    "WorkerId": "A1JF9ZNXWK5QZU",
    "answers": {
        "data": {
            "trials": [],
            "condition": "feelings",
            "allData": {
                "education": "college_bachDegree",
                "englishNative": "no",
                "trialData": [
                    {
                        "rt": 15001,
                        "swatch": "BI2A00008",
                        "trialNum": 1,
                        "response": "equally yes/no",
                        "responseCoded": 0
                    },
                    {
                        "rt": 8912,
                        "swatch": "BI2A00014",
                        "trialNum": 2,
                        "response": "maybe yes",
                        "responseCoded": 1
                    },
                    {
                        "rt": 4376,
                        "swatch": "BI2A00003",
                        "trialNum": 3,
                        "response": "probably yes",
                        "responseCoded": 2
                    },
                    {
                        "rt": 1922,
                        "swatch": "BI2A00004",
                        "trialNum": 4,
                        "response": "definitely yes",
                        "responseCoded": 3
                    },
                    {
                        "rt": 3046,
                        "swatch": "BI2A00025",
                        "trialNum": 5,
                        "response": "definitely yes",
                        "responseCoded": 3
                    },
                    {
                        "rt": 2114,
                        "swatch": "BI2A00027",
                        "trialNum": 6,
                        "response": "maybe no",
                        "responseCoded": -1
                    },
                    {
                        "rt": 6183,
                        "swatch": "BI2A00046",
                        "trialNum": 7,
                        "response": "equally yes/no",
                        "responseCoded": 0
                    },
                    {
                        "rt": 2592,
                        "swatch": "BI2A00001",
                        "trialNum": 8,
                        "response": "definitely yes",
                        "responseCoded": 3
                    },
                    {
                        "rt": 1100,
                        "swatch": "BI2A00020",
                        "trialNum": 9,
                        "response": "definitely yes",
                        "responseCoded": 3
                    },
                    {
                        "rt": 3734,
                        "swatch": "BI2A00037",
                        "trialNum": 10,
                        "response": "maybe no",
                        "responseCoded": -1
                    },
                    {
                        "rt": 6924,
                        "swatch": "BI2A00024",
                        "trialNum": 11,
                        "response": "definitely no",
                        "responseCoded": 3
                    },
                    {
                        "rt": 2957,
                        "swatch": "BI2A00007",
                        "trialNum": 12,
                        "response": "definitely yes",
                        "responseCoded": 3
                    },
                    {
                        "rt": 2642,
                        "swatch": "BI2A00010",
                        "trialNum": 13,
                        "response": "equally yes/no",
                        "responseCoded": 0
                    },
                    {
                        "rt": 4307,
                        "swatch": "BI2A00011",
                        "trialNum": 14,
                        "response": "equally yes/no",
                        "responseCoded": 0
                    },
                    {
                        "rt": 2817,
                        "swatch": "BI2A00019",
                        "trialNum": 15,
                        "response": "maybe yes",
                        "responseCoded": 1
                    },
                    {
                        "rt": 4117,
                        "swatch": "BI2A00022",
                        "trialNum": 16,
                        "response": "probably no",
                        "responseCoded": -2
                    },
                    {
                        "rt": 2475,
                        "swatch": "BI2A00044",
                        "trialNum": 17,
                        "response": "probably no",
                        "responseCoded": -2
                    },
                    {
                        "rt": 2879,
                        "swatch": "BI2A00009",
                        "trialNum": 18,
                        "response": "definitely yes",
                        "responseCoded": 3
                    },
                    {
                        "rt": 2196,
                        "swatch": "BI2A00012",
                        "trialNum": 19,
                        "response": "maybe yes",
                        "responseCoded": 1
                    },
                    {
                        "rt": 1290,
                        "swatch": "BI2A00026",
                        "trialNum": 20,
                        "response": "maybe yes",
                        "responseCoded": 1
                    },
                    {
                        "rt": 2885,
                        "swatch": "BI2A00023",
                        "trialNum": 21,
                        "response": "maybe yes",
                        "responseCoded": 1
                    },
                    {
                        "rt": 2772,
                        "swatch": "BI2A00032",
                        "trialNum": 22,
                        "response": "maybe no",
                        "responseCoded": -1
                    },
                    {
                        "rt": 2251,
                        "swatch": "BI2A00043",
                        "trialNum": 23,
                        "response": "equally yes/no",
                        "responseCoded": 0
                    },
                    {
                        "rt": 2981,
                        "swatch": "BI2A00015",
                        "trialNum": 24,
                        "response": "probably yes",
                        "responseCoded": 2
                    },
                    {
                        "rt": 1629,
                        "swatch": "BI2A00040",
                        "trialNum": 25,
                        "response": "maybe yes",
                        "responseCoded": 1
                    },
                    {
                        "rt": 1319,
                        "swatch": "BI2A00047",
                        "trialNum": 26,
                        "response": "probably yes",
                        "responseCoded": 2
                    },
                    {
                        "rt": 4380,
                        "swatch": "BI2A00017",
                        "trialNum": 27,
                        "response": "equally yes/no",
                        "responseCoded": 0
                    },
                    {
                        "rt": 3558,
                        "swatch": "BI2A00038",
                        "trialNum": 28,
                        "response": "equally yes/no",
                        "responseCoded": 0
                    },
                    {
                        "rt": 6678,
                        "swatch": "BI2A00045",
                        "trialNum": 29,
                        "response": "probably no",
                        "responseCoded": -2
                    },
                    {
                        "rt": 2029,
                        "swatch": "BI2A00036",
                        "trialNum": 30,
                        "response": "equally yes/no",
                        "responseCoded": 0
                    },
                    {
                        "rt": 1740,
                        "swatch": "BI2A00021",
                        "trialNum": 31,
                        "response": "equally yes/no",
                        "responseCoded": 0
                    },
                    {
                        "rt": 2559,
                        "swatch": "BI2A00033",
                        "trialNum": 32,
                        "response": "maybe no",
                        "responseCoded": -1
                    },
                    {
                        "rt": 1841,
                        "swatch": "BI2A00016",
                        "trialNum": 33,
                        "response": "definitely yes",
                        "responseCoded": 3
                    },
                    {
                        "rt": 1632,
                        "swatch": "BI2A00006",
                        "trialNum": 34,
                        "response": "definitely yes",
                        "responseCoded": 3
                    },
                    {
                        "rt": 3298,
                        "swatch": "BI2A00018",
                        "trialNum": 35,
                        "response": "equally yes/no",
                        "responseCoded": 0
                    },
                    {
                        "rt": 1562,
                        "swatch": "BI2A00029",
                        "trialNum": 36,
                        "response": "definitely yes",
                        "responseCoded": 3
                    },
                    {
                        "rt": 1158,
                        "swatch": "BI2A00031",
                        "trialNum": 37,
                        "response": "definitely yes",
                        "responseCoded": 3
                    },
                    {
                        "rt": 4869,
                        "swatch": "BI2A00002",
                        "trialNum": 38,
                        "response": "definitely yes",
                        "responseCoded": 3
                    },
                    {
                        "rt": 1992,
                        "swatch": "BI2A00039",
                        "trialNum": 39,
                        "response": "definitely no",
                        "responseCoded": 3
                    },
                    {
                        "rt": 1928,
                        "swatch": "BI2A00013",
                        "trialNum": 40,
                        "response": "definitely yes",
                        "responseCoded": 3
                    },
                    {
                        "rt": 2117,
                        "swatch": "BI2A00028",
                        "trialNum": 41,
                        "response": "equally yes/no",
                        "responseCoded": 0
                    },
                    {
                        "rt": 1605,
                        "swatch": "BI2A00005",
                        "trialNum": 42,
                        "response": "probably yes",
                        "responseCoded": 2
                    },
                    {
                        "rt": 2667,
                        "swatch": "BI2A00041",
                        "trialNum": 43,
                        "response": "equally yes/no",
                        "responseCoded": 0
                    },
                    {
                        "rt": 2825,
                        "swatch": "BI2A00035",
                        "trialNum": 44,
                        "response": "equally yes/no",
                        "responseCoded": 0
                    },
                    {
                        "rt": 2992,
                        "swatch": "BI2A00042",
                        "trialNum": 45,
                        "response": "definitely no",
                        "responseCoded": 3
                    },
                    {
                        "rt": 3501,
                        "swatch": "BI2A00030",
                        "trialNum": 46,
                        "response": "maybe no",
                        "responseCoded": -1
                    },
                    {
                        "rt": 1500,
                        "swatch": "BI2A00048",
                        "trialNum": 47,
                        "response": "equally yes/no",
                        "responseCoded": 0
                    },
                    {
                        "rt": 3559,
                        "swatch": "BI2A00034",
                        "trialNum": 48,
                        "response": "maybe no",
                        "responseCoded": -1
                    }
                ],
                "gender": "female",
                "age": "31",
                "comments": "Actually I like your work. I so glad to work with you. Keep it up. Lord bless you.",
                "religion": [
                    "hinduism"
                ],
                "condition": "feelings",
                "fingerprintData": {
                    "ip": "124.253.154.117",
                    "screenHeight": 768,
                    "plugins": [
                        {
                            "description": "Enables Widevine licenses for playback of HTML audio/video content. (version: 1.4.6.758)",
                            "filename": "widevinecdmadapter.dll"
                        },
                        {
                            "description": "Shockwave Flash 16.0 r0",
                            "filename": "pepflashplayer.dll"
                        },
                        {
                            "description": "This plugin allows you to securely access other computers that have been shared with you. To use this plugin you must first install the <a href=\"https://chrome.google.com/remotedesktop\">Chrome Remote Desktop</a> webapp.",
                            "filename": "internal-remoting-viewer"
                        },
                        {
                            "description": "",
                            "filename": "internal-nacl-plugin"
                        },
                        {
                            "description": "",
                            "filename": "pdf.dll"
                        },
                        {
                            "description": "Google Update",
                            "filename": "npGoogleUpdate3.dll"
                        }
                    ],
                    "timezone": -480,
                    "colorDepth": 24,
                    "screenWidth": 1280,
                    "geo": {
                        "city": "Chandigarh",
                        "region_code": "CH",
                        "region_name": "Chandigarh",
                        "ip": "124.253.154.117",
                        "time_zone": "Asia/Kolkata",
                        "longitude": 76.793,
                        "metro_code": 0,
                        "latitude": 30.734,
                        "country_code": "IN",
                        "country_name": "India",
                        "zip_code": "160017"
                    },
                    "browser": "Mozilla/5.0 (Windows NT 6.1) AppleWebKit/537.36 (KHTML, like Gecko) Chrome/40.0.2214.115 Safari/537.36"
                },
                "ethnicity": [
                    "asian_southAsian"
                ]
            }
        }
    },
    "AcceptTime": "2015-03-03T09:08:54Z",
    "HITId": "3T8DUCXY0NFS8HJNPUVH4PK7OP69T8",
    "Assignment": "",
    "AssignmentStatus": "Submitted",
    "SubmitTime": "2015-03-03T09:20:23Z"
}