{
    "AutoApprovalTime": "2015-03-03T09:36:43Z",
    "AssignmentId": "36WLNQG780JBTBEGNLPJLTBFMSCEBU",
    "WorkerId": "AJZBAP861F6X1",
    "answers": {
        "data": {
            "trials": [],
            "condition": "sense",
            "allData": {
                "education": "college_bachDegree",
                "englishNative": "no",
                "trialData": [
                    {
                        "rt": 14598,
                        "swatch": "BI2A00034",
                        "trialNum": 1,
                        "response": "maybe yes",
                        "responseCoded": 1
                    },
                    {
                        "rt": 4500,
                        "swatch": "BI2A00047",
                        "trialNum": 2,
                        "response": "probably yes",
                        "responseCoded": 2
                    },
                    {
                        "rt": 3805,
                        "swatch": "BI2A00024",
                        "trialNum": 3,
                        "response": "probably yes",
                        "responseCoded": 2
                    },
                    {
                        "rt": 6158,
                        "swatch": "BI2A00040",
                        "trialNum": 4,
                        "response": "probably yes",
                        "responseCoded": 2
                    },
                    {
                        "rt": 4389,
                        "swatch": "BI2A00019",
                        "trialNum": 5,
                        "response": "probably yes",
                        "responseCoded": 2
                    },
                    {
                        "rt": 4388,
                        "swatch": "BI2A00042",
                        "trialNum": 6,
                        "response": "maybe no",
                        "responseCoded": -1
                    },
                    {
                        "rt": 2166,
                        "swatch": "BI2A00041",
                        "trialNum": 7,
                        "response": "probably yes",
                        "responseCoded": 2
                    },
                    {
                        "rt": 1811,
                        "swatch": "BI2A00037",
                        "trialNum": 8,
                        "response": "probably yes",
                        "responseCoded": 2
                    },
                    {
                        "rt": 2781,
                        "swatch": "BI2A00003",
                        "trialNum": 9,
                        "response": "probably yes",
                        "responseCoded": 2
                    },
                    {
                        "rt": 1562,
                        "swatch": "BI2A00045",
                        "trialNum": 10,
                        "response": "probably yes",
                        "responseCoded": 2
                    },
                    {
                        "rt": 1968,
                        "swatch": "BI2A00048",
                        "trialNum": 11,
                        "response": "probably yes",
                        "responseCoded": 2
                    },
                    {
                        "rt": 4146,
                        "swatch": "BI2A00011",
                        "trialNum": 12,
                        "response": "probably yes",
                        "responseCoded": 2
                    },
                    {
                        "rt": 3820,
                        "swatch": "BI2A00044",
                        "trialNum": 13,
                        "response": "maybe yes",
                        "responseCoded": 1
                    },
                    {
                        "rt": 2653,
                        "swatch": "BI2A00010",
                        "trialNum": 14,
                        "response": "maybe yes",
                        "responseCoded": 1
                    },
                    {
                        "rt": 3464,
                        "swatch": "BI2A00016",
                        "trialNum": 15,
                        "response": "probably yes",
                        "responseCoded": 2
                    },
                    {
                        "rt": 3558,
                        "swatch": "BI2A00028",
                        "trialNum": 16,
                        "response": "maybe yes",
                        "responseCoded": 1
                    },
                    {
                        "rt": 2061,
                        "swatch": "BI2A00020",
                        "trialNum": 17,
                        "response": "maybe yes",
                        "responseCoded": 1
                    },
                    {
                        "rt": 6365,
                        "swatch": "BI2A00004",
                        "trialNum": 18,
                        "response": "maybe yes",
                        "responseCoded": 1
                    },
                    {
                        "rt": 5581,
                        "swatch": "BI2A00046",
                        "trialNum": 19,
                        "response": "equally yes/no",
                        "responseCoded": 0
                    },
                    {
                        "rt": 2837,
                        "swatch": "BI2A00002",
                        "trialNum": 20,
                        "response": "equally yes/no",
                        "responseCoded": 0
                    },
                    {
                        "rt": 1845,
                        "swatch": "BI2A00012",
                        "trialNum": 21,
                        "response": "equally yes/no",
                        "responseCoded": 0
                    },
                    {
                        "rt": 3553,
                        "swatch": "BI2A00001",
                        "trialNum": 22,
                        "response": "maybe no",
                        "responseCoded": -1
                    },
                    {
                        "rt": 1813,
                        "swatch": "BI2A00008",
                        "trialNum": 23,
                        "response": "maybe no",
                        "responseCoded": -1
                    },
                    {
                        "rt": 2868,
                        "swatch": "BI2A00007",
                        "trialNum": 24,
                        "response": "maybe no",
                        "responseCoded": -1
                    },
                    {
                        "rt": 3221,
                        "swatch": "BI2A00032",
                        "trialNum": 25,
                        "response": "equally yes/no",
                        "responseCoded": 0
                    },
                    {
                        "rt": 2707,
                        "swatch": "BI2A00013",
                        "trialNum": 26,
                        "response": "maybe yes",
                        "responseCoded": 1
                    },
                    {
                        "rt": 2997,
                        "swatch": "BI2A00027",
                        "trialNum": 27,
                        "response": "probably no",
                        "responseCoded": -2
                    },
                    {
                        "rt": 3677,
                        "swatch": "BI2A00005",
                        "trialNum": 28,
                        "response": "equally yes/no",
                        "responseCoded": 0
                    },
                    {
                        "rt": 1996,
                        "swatch": "BI2A00006",
                        "trialNum": 29,
                        "response": "maybe yes",
                        "responseCoded": 1
                    },
                    {
                        "rt": 1942,
                        "swatch": "BI2A00038",
                        "trialNum": 30,
                        "response": "maybe yes",
                        "responseCoded": 1
                    },
                    {
                        "rt": 2108,
                        "swatch": "BI2A00021",
                        "trialNum": 31,
                        "response": "maybe yes",
                        "responseCoded": 1
                    },
                    {
                        "rt": 2020,
                        "swatch": "BI2A00039",
                        "trialNum": 32,
                        "response": "maybe yes",
                        "responseCoded": 1
                    },
                    {
                        "rt": 2452,
                        "swatch": "BI2A00018",
                        "trialNum": 33,
                        "response": "maybe yes",
                        "responseCoded": 1
                    },
                    {
                        "rt": 3556,
                        "swatch": "BI2A00023",
                        "trialNum": 34,
                        "response": "equally yes/no",
                        "responseCoded": 0
                    },
                    {
                        "rt": 1429,
                        "swatch": "BI2A00031",
                        "trialNum": 35,
                        "response": "equally yes/no",
                        "responseCoded": 0
                    },
                    {
                        "rt": 1908,
                        "swatch": "BI2A00009",
                        "trialNum": 36,
                        "response": "equally yes/no",
                        "responseCoded": 0
                    },
                    {
                        "rt": 3340,
                        "swatch": "BI2A00029",
                        "trialNum": 37,
                        "response": "maybe no",
                        "responseCoded": -1
                    },
                    {
                        "rt": 1573,
                        "swatch": "BI2A00025",
                        "trialNum": 38,
                        "response": "maybe no",
                        "responseCoded": -1
                    },
                    {
                        "rt": 3214,
                        "swatch": "BI2A00030",
                        "trialNum": 39,
                        "response": "probably no",
                        "responseCoded": -2
                    },
                    {
                        "rt": 2118,
                        "swatch": "BI2A00033",
                        "trialNum": 40,
                        "response": "probably no",
                        "responseCoded": -2
                    },
                    {
                        "rt": 2268,
                        "swatch": "BI2A00022",
                        "trialNum": 41,
                        "response": "probably no",
                        "responseCoded": -2
                    },
                    {
                        "rt": 2206,
                        "swatch": "BI2A00015",
                        "trialNum": 42,
                        "response": "equally yes/no",
                        "responseCoded": 0
                    },
                    {
                        "rt": 2765,
                        "swatch": "BI2A00014",
                        "trialNum": 43,
                        "response": "maybe no",
                        "responseCoded": -1
                    },
                    {
                        "rt": 1998,
                        "swatch": "BI2A00035",
                        "trialNum": 44,
                        "response": "maybe no",
                        "responseCoded": -1
                    },
                    {
                        "rt": 3396,
                        "swatch": "BI2A00017",
                        "trialNum": 45,
                        "response": "maybe no",
                        "responseCoded": -1
                    },
                    {
                        "rt": 4446,
                        "swatch": "BI2A00026",
                        "trialNum": 46,
                        "response": "maybe no",
                        "responseCoded": -1
                    },
                    {
                        "rt": 7221,
                        "swatch": "BI2A00043",
                        "trialNum": 47,
                        "response": "maybe no",
                        "responseCoded": -1
                    },
                    {
                        "rt": 3749,
                        "swatch": "BI2A00036",
                        "trialNum": 48,
                        "response": "definitely no",
                        "responseCoded": 3
                    }
                ],
                "gender": "male",
                "age": "38",
                "comments": "give more surveys",
                "religion": [
                    "hinduism"
                ],
                "condition": "sense",
                "fingerprintData": {
                    "ip": "59.89.252.131",
                    "screenHeight": 720,
                    "plugins": [
                        {
                            "description": "DRM Netscape Network Object",
                            "filename": "npdrmv2.dll"
                        },
                        {
                            "description": "DRM Store Netscape Plugin",
                            "filename": "npwmsdrm.dll"
                        },
                        {
                            "description": "Shockwave Flash 16.0 r0",
                            "filename": "NPSWF32_16_0_0_305.dll"
                        },
                        {
                            "description": "Npdsplay dll",
                            "filename": "npdsplay.dll"
                        }
                    ],
                    "timezone": -330,
                    "colorDepth": 24,
                    "screenWidth": 1280,
                    "geo": {
                        "city": "",
                        "region_code": "",
                        "region_name": "",
                        "ip": "59.89.252.131",
                        "time_zone": "Asia/Kolkata",
                        "longitude": 77,
                        "metro_code": 0,
                        "latitude": 20,
                        "country_code": "IN",
                        "country_name": "India",
                        "zip_code": ""
                    },
                    "browser": "Mozilla/5.0 (Windows NT 5.1; rv:36.0) Gecko/20100101 Firefox/36.0"
                },
                "ethnicity": [
                    "asian_southAsian"
                ]
            }
        }
    },
    "AcceptTime": "2015-03-03T08:56:56Z",
    "HITId": "3T8DUCXY0NFS8HJNPUVH4PK7OP69T8",
    "Assignment": "",
    "AssignmentStatus": "Submitted",
    "SubmitTime": "2015-03-03T09:31:43Z"
}