{
    "AutoApprovalTime": "2015-03-03T09:03:45Z",
    "AssignmentId": "37TD41K0AIIVDZB42G5JLULC54KSCF",
    "WorkerId": "A28PS7TGEQCFT4",
    "answers": {
        "data": {
            "trials": [],
            "condition": "sense",
            "allData": {
                "education": "grad_degree",
                "englishNative": "no",
                "trialData": [
                    {
                        "rt": 6533,
                        "swatch": "BI2A00006",
                        "trialNum": 1,
                        "response": "probably no",
                        "responseCoded": -2
                    },
                    {
                        "rt": 2145,
                        "swatch": "BI2A00034",
                        "trialNum": 2,
                        "response": "maybe yes",
                        "responseCoded": 1
                    },
                    {
                        "rt": 1932,
                        "swatch": "BI2A00045",
                        "trialNum": 3,
                        "response": "probably yes",
                        "responseCoded": 2
                    },
                    {
                        "rt": 3573,
                        "swatch": "BI2A00027",
                        "trialNum": 4,
                        "response": "definitely no",
                        "responseCoded": 3
                    },
                    {
                        "rt": 3190,
                        "swatch": "BI2A00017",
                        "trialNum": 5,
                        "response": "equally yes/no",
                        "responseCoded": 0
                    },
                    {
                        "rt": 2131,
                        "swatch": "BI2A00012",
                        "trialNum": 6,
                        "response": "maybe no",
                        "responseCoded": -1
                    },
                    {
                        "rt": 2381,
                        "swatch": "BI2A00022",
                        "trialNum": 7,
                        "response": "probably yes",
                        "responseCoded": 2
                    },
                    {
                        "rt": 4565,
                        "swatch": "BI2A00002",
                        "trialNum": 8,
                        "response": "maybe no",
                        "responseCoded": -1
                    },
                    {
                        "rt": 2221,
                        "swatch": "BI2A00046",
                        "trialNum": 9,
                        "response": "definitely yes",
                        "responseCoded": 3
                    },
                    {
                        "rt": 2197,
                        "swatch": "BI2A00015",
                        "trialNum": 10,
                        "response": "maybe yes",
                        "responseCoded": 1
                    },
                    {
                        "rt": 1060,
                        "swatch": "BI2A00024",
                        "trialNum": 11,
                        "response": "equally yes/no",
                        "responseCoded": 0
                    },
                    {
                        "rt": 1318,
                        "swatch": "BI2A00029",
                        "trialNum": 12,
                        "response": "maybe no",
                        "responseCoded": -1
                    },
                    {
                        "rt": 3141,
                        "swatch": "BI2A00040",
                        "trialNum": 13,
                        "response": "probably no",
                        "responseCoded": -2
                    },
                    {
                        "rt": 1340,
                        "swatch": "BI2A00019",
                        "trialNum": 14,
                        "response": "maybe no",
                        "responseCoded": -1
                    },
                    {
                        "rt": 3388,
                        "swatch": "BI2A00011",
                        "trialNum": 15,
                        "response": "maybe yes",
                        "responseCoded": 1
                    },
                    {
                        "rt": 2221,
                        "swatch": "BI2A00039",
                        "trialNum": 16,
                        "response": "equally yes/no",
                        "responseCoded": 0
                    },
                    {
                        "rt": 1572,
                        "swatch": "BI2A00023",
                        "trialNum": 17,
                        "response": "probably yes",
                        "responseCoded": 2
                    },
                    {
                        "rt": 1677,
                        "swatch": "BI2A00044",
                        "trialNum": 18,
                        "response": "definitely no",
                        "responseCoded": 3
                    },
                    {
                        "rt": 2149,
                        "swatch": "BI2A00007",
                        "trialNum": 19,
                        "response": "probably no",
                        "responseCoded": -2
                    },
                    {
                        "rt": 1475,
                        "swatch": "BI2A00031",
                        "trialNum": 20,
                        "response": "definitely no",
                        "responseCoded": 3
                    },
                    {
                        "rt": 1366,
                        "swatch": "BI2A00014",
                        "trialNum": 21,
                        "response": "maybe no",
                        "responseCoded": -1
                    },
                    {
                        "rt": 1236,
                        "swatch": "BI2A00038",
                        "trialNum": 22,
                        "response": "equally yes/no",
                        "responseCoded": 0
                    },
                    {
                        "rt": 1692,
                        "swatch": "BI2A00026",
                        "trialNum": 23,
                        "response": "probably no",
                        "responseCoded": -2
                    },
                    {
                        "rt": 1109,
                        "swatch": "BI2A00033",
                        "trialNum": 24,
                        "response": "maybe no",
                        "responseCoded": -1
                    },
                    {
                        "rt": 1253,
                        "swatch": "BI2A00047",
                        "trialNum": 25,
                        "response": "definitely no",
                        "responseCoded": 3
                    },
                    {
                        "rt": 2761,
                        "swatch": "BI2A00013",
                        "trialNum": 26,
                        "response": "maybe no",
                        "responseCoded": -1
                    },
                    {
                        "rt": 2237,
                        "swatch": "BI2A00001",
                        "trialNum": 27,
                        "response": "probably no",
                        "responseCoded": -2
                    },
                    {
                        "rt": 21570,
                        "swatch": "BI2A00016",
                        "trialNum": 28,
                        "response": "probably yes",
                        "responseCoded": 2
                    },
                    {
                        "rt": 1677,
                        "swatch": "BI2A00041",
                        "trialNum": 29,
                        "response": "maybe no",
                        "responseCoded": -1
                    },
                    {
                        "rt": 1799,
                        "swatch": "BI2A00032",
                        "trialNum": 30,
                        "response": "definitely no",
                        "responseCoded": 3
                    },
                    {
                        "rt": 1422,
                        "swatch": "BI2A00042",
                        "trialNum": 31,
                        "response": "maybe no",
                        "responseCoded": -1
                    },
                    {
                        "rt": 2269,
                        "swatch": "BI2A00025",
                        "trialNum": 32,
                        "response": "probably no",
                        "responseCoded": -2
                    },
                    {
                        "rt": 1685,
                        "swatch": "BI2A00037",
                        "trialNum": 33,
                        "response": "definitely no",
                        "responseCoded": 3
                    },
                    {
                        "rt": 1277,
                        "swatch": "BI2A00043",
                        "trialNum": 34,
                        "response": "maybe no",
                        "responseCoded": -1
                    },
                    {
                        "rt": 1497,
                        "swatch": "BI2A00009",
                        "trialNum": 35,
                        "response": "maybe yes",
                        "responseCoded": 1
                    },
                    {
                        "rt": 2913,
                        "swatch": "BI2A00035",
                        "trialNum": 36,
                        "response": "equally yes/no",
                        "responseCoded": 0
                    },
                    {
                        "rt": 1853,
                        "swatch": "BI2A00030",
                        "trialNum": 37,
                        "response": "definitely no",
                        "responseCoded": 3
                    },
                    {
                        "rt": 1054,
                        "swatch": "BI2A00048",
                        "trialNum": 38,
                        "response": "probably no",
                        "responseCoded": -2
                    },
                    {
                        "rt": 3174,
                        "swatch": "BI2A00004",
                        "trialNum": 39,
                        "response": "probably yes",
                        "responseCoded": 2
                    },
                    {
                        "rt": 1718,
                        "swatch": "BI2A00003",
                        "trialNum": 40,
                        "response": "maybe no",
                        "responseCoded": -1
                    },
                    {
                        "rt": 1780,
                        "swatch": "BI2A00028",
                        "trialNum": 41,
                        "response": "definitely no",
                        "responseCoded": 3
                    },
                    {
                        "rt": 3413,
                        "swatch": "BI2A00010",
                        "trialNum": 42,
                        "response": "probably yes",
                        "responseCoded": 2
                    },
                    {
                        "rt": 1557,
                        "swatch": "BI2A00018",
                        "trialNum": 43,
                        "response": "maybe no",
                        "responseCoded": -1
                    },
                    {
                        "rt": 1684,
                        "swatch": "BI2A00020",
                        "trialNum": 44,
                        "response": "probably no",
                        "responseCoded": -2
                    },
                    {
                        "rt": 1973,
                        "swatch": "BI2A00021",
                        "trialNum": 45,
                        "response": "definitely no",
                        "responseCoded": 3
                    },
                    {
                        "rt": 1950,
                        "swatch": "BI2A00036",
                        "trialNum": 46,
                        "response": "maybe no",
                        "responseCoded": -1
                    },
                    {
                        "rt": 2614,
                        "swatch": "BI2A00005",
                        "trialNum": 47,
                        "response": "probably no",
                        "responseCoded": -2
                    },
                    {
                        "rt": 1918,
                        "swatch": "BI2A00008",
                        "trialNum": 48,
                        "response": "maybe no",
                        "responseCoded": -1
                    }
                ],
                "gender": "male",
                "age": "29",
                "comments": "Thank you for this survey.",
                "religion": [
                    "christianity_catholic"
                ],
                "condition": "sense",
                "fingerprintData": {
                    "ip": "163.47.15.53",
                    "screenHeight": 768,
                    "plugins": [
                        {
                            "description": "",
                            "filename": "pdf.dll"
                        },
                        {
                            "description": "Adobe PDF Plug-In For Firefox and Netscape 11.0.10",
                            "filename": "nppdf32.dll"
                        },
                        {
                            "description": "NPRuntime Script Plug-in Library for Java(TM) Deploy",
                            "filename": "npDeployJava1.dll"
                        },
                        {
                            "description": "Next Generation Java Plug-in 11.31.2 for Mozilla browsers",
                            "filename": "npjp2.dll"
                        },
                        {
                            "description": "VLC media player Web Plugin 2.0.6",
                            "filename": "npvlc.dll"
                        },
                        {
                            "description": "Facebook Video Calling Plugin",
                            "filename": "npFacebookVideoCalling.dll"
                        },
                        {
                            "description": "Google Update",
                            "filename": "npGoogleUpdate3.dll"
                        },
                        {
                            "description": "Shockwave Flash 17.0 d0",
                            "filename": "NPSWF32_17_0_0_123.dll"
                        }
                    ],
                    "timezone": -330,
                    "colorDepth": 24,
                    "screenWidth": 1024,
                    "geo": {
                        "city": "",
                        "region_code": "",
                        "region_name": "",
                        "ip": "163.47.15.53",
                        "time_zone": "Asia/Kolkata",
                        "longitude": 77,
                        "metro_code": 0,
                        "latitude": 20,
                        "country_code": "IN",
                        "country_name": "India",
                        "zip_code": ""
                    },
                    "browser": "Mozilla/5.0 (Windows NT 6.1; WOW64) AppleWebKit/537.36 (KHTML, like Gecko) Chrome/40.0.2214.115 Safari/537.36 OPR/27.0.1689.76"
                },
                "ethnicity": [
                    "asian_southAsian"
                ]
            }
        }
    },
    "AcceptTime": "2015-03-03T08:52:26Z",
    "HITId": "3T8DUCXY0NFS8HJNPUVH4PK7OP69T8",
    "Assignment": "",
    "AssignmentStatus": "Submitted",
    "SubmitTime": "2015-03-03T08:58:45Z"
}