{
    "AutoApprovalTime": "2015-03-03T09:48:31Z",
    "AssignmentId": "388U7OUMF8AZISGBBBCU0JEFAD5R0Y",
    "WorkerId": "A370V697M1KW6R",
    "answers": {
        "data": {
            "trials": [],
            "condition": "hungry",
            "allData": {
                "education": "college_bachDegree",
                "englishNative": "no",
                "trialData": [
                    {
                        "rt": 8361,
                        "swatch": "BI2A00034",
                        "trialNum": 1,
                        "response": "probably no",
                        "responseCoded": -2
                    },
                    {
                        "rt": 18588,
                        "swatch": "BI2A00011",
                        "trialNum": 2,
                        "response": "probably no",
                        "responseCoded": -2
                    },
                    {
                        "rt": 8599,
                        "swatch": "BI2A00024",
                        "trialNum": 3,
                        "response": "maybe no",
                        "responseCoded": -1
                    },
                    {
                        "rt": 8589,
                        "swatch": "BI2A00031",
                        "trialNum": 4,
                        "response": "probably no",
                        "responseCoded": -2
                    },
                    {
                        "rt": 8095,
                        "swatch": "BI2A00016",
                        "trialNum": 5,
                        "response": "probably no",
                        "responseCoded": -2
                    },
                    {
                        "rt": 6976,
                        "swatch": "BI2A00004",
                        "trialNum": 6,
                        "response": "probably no",
                        "responseCoded": -2
                    },
                    {
                        "rt": 6332,
                        "swatch": "BI2A00028",
                        "trialNum": 7,
                        "response": "probably no",
                        "responseCoded": -2
                    },
                    {
                        "rt": 9480,
                        "swatch": "BI2A00025",
                        "trialNum": 8,
                        "response": "probably no",
                        "responseCoded": -2
                    },
                    {
                        "rt": 9476,
                        "swatch": "BI2A00019",
                        "trialNum": 9,
                        "response": "probably no",
                        "responseCoded": -2
                    },
                    {
                        "rt": 7285,
                        "swatch": "BI2A00041",
                        "trialNum": 10,
                        "response": "probably no",
                        "responseCoded": -2
                    },
                    {
                        "rt": 7301,
                        "swatch": "BI2A00042",
                        "trialNum": 11,
                        "response": "probably no",
                        "responseCoded": -2
                    },
                    {
                        "rt": 7352,
                        "swatch": "BI2A00040",
                        "trialNum": 12,
                        "response": "probably no",
                        "responseCoded": -2
                    },
                    {
                        "rt": 9236,
                        "swatch": "BI2A00045",
                        "trialNum": 13,
                        "response": "probably no",
                        "responseCoded": -2
                    },
                    {
                        "rt": 6851,
                        "swatch": "BI2A00046",
                        "trialNum": 14,
                        "response": "probably no",
                        "responseCoded": -2
                    },
                    {
                        "rt": 9709,
                        "swatch": "BI2A00030",
                        "trialNum": 15,
                        "response": "probably no",
                        "responseCoded": -2
                    },
                    {
                        "rt": 20343,
                        "swatch": "BI2A00012",
                        "trialNum": 16,
                        "response": "probably no",
                        "responseCoded": -2
                    },
                    {
                        "rt": 7922,
                        "swatch": "BI2A00035",
                        "trialNum": 17,
                        "response": "probably no",
                        "responseCoded": -2
                    },
                    {
                        "rt": 9483,
                        "swatch": "BI2A00013",
                        "trialNum": 18,
                        "response": "probably no",
                        "responseCoded": -2
                    },
                    {
                        "rt": 12572,
                        "swatch": "BI2A00021",
                        "trialNum": 19,
                        "response": "probably no",
                        "responseCoded": -2
                    },
                    {
                        "rt": 5925,
                        "swatch": "BI2A00002",
                        "trialNum": 20,
                        "response": "equally yes/no",
                        "responseCoded": 0
                    },
                    {
                        "rt": 28468,
                        "swatch": "BI2A00022",
                        "trialNum": 21,
                        "response": "probably no",
                        "responseCoded": -2
                    },
                    {
                        "rt": 7130,
                        "swatch": "BI2A00006",
                        "trialNum": 22,
                        "response": "probably no",
                        "responseCoded": -2
                    },
                    {
                        "rt": 5591,
                        "swatch": "BI2A00009",
                        "trialNum": 23,
                        "response": "probably no",
                        "responseCoded": -2
                    },
                    {
                        "rt": 9432,
                        "swatch": "BI2A00033",
                        "trialNum": 24,
                        "response": "probably no",
                        "responseCoded": -2
                    },
                    {
                        "rt": 8194,
                        "swatch": "BI2A00008",
                        "trialNum": 25,
                        "response": "probably no",
                        "responseCoded": -2
                    },
                    {
                        "rt": 20106,
                        "swatch": "BI2A00039",
                        "trialNum": 26,
                        "response": "probably no",
                        "responseCoded": -2
                    },
                    {
                        "rt": 7648,
                        "swatch": "BI2A00007",
                        "trialNum": 27,
                        "response": "probably no",
                        "responseCoded": -2
                    },
                    {
                        "rt": 10784,
                        "swatch": "BI2A00005",
                        "trialNum": 28,
                        "response": "probably no",
                        "responseCoded": -2
                    },
                    {
                        "rt": 9062,
                        "swatch": "BI2A00015",
                        "trialNum": 29,
                        "response": "probably no",
                        "responseCoded": -2
                    },
                    {
                        "rt": 10122,
                        "swatch": "BI2A00003",
                        "trialNum": 30,
                        "response": "probably no",
                        "responseCoded": -2
                    },
                    {
                        "rt": 7947,
                        "swatch": "BI2A00020",
                        "trialNum": 31,
                        "response": "probably no",
                        "responseCoded": -2
                    },
                    {
                        "rt": 6825,
                        "swatch": "BI2A00047",
                        "trialNum": 32,
                        "response": "probably no",
                        "responseCoded": -2
                    },
                    {
                        "rt": 9978,
                        "swatch": "BI2A00023",
                        "trialNum": 33,
                        "response": "probably no",
                        "responseCoded": -2
                    },
                    {
                        "rt": 6697,
                        "swatch": "BI2A00036",
                        "trialNum": 34,
                        "response": "probably no",
                        "responseCoded": -2
                    },
                    {
                        "rt": 7625,
                        "swatch": "BI2A00014",
                        "trialNum": 35,
                        "response": "probably no",
                        "responseCoded": -2
                    },
                    {
                        "rt": 9193,
                        "swatch": "BI2A00037",
                        "trialNum": 36,
                        "response": "probably no",
                        "responseCoded": -2
                    },
                    {
                        "rt": 6719,
                        "swatch": "BI2A00010",
                        "trialNum": 37,
                        "response": "probably no",
                        "responseCoded": -2
                    },
                    {
                        "rt": 7947,
                        "swatch": "BI2A00027",
                        "trialNum": 38,
                        "response": "probably no",
                        "responseCoded": -2
                    },
                    {
                        "rt": 8209,
                        "swatch": "BI2A00044",
                        "trialNum": 39,
                        "response": "probably no",
                        "responseCoded": -2
                    },
                    {
                        "rt": 9089,
                        "swatch": "BI2A00029",
                        "trialNum": 40,
                        "response": "probably no",
                        "responseCoded": -2
                    },
                    {
                        "rt": 7576,
                        "swatch": "BI2A00001",
                        "trialNum": 41,
                        "response": "probably no",
                        "responseCoded": -2
                    },
                    {
                        "rt": 7811,
                        "swatch": "BI2A00018",
                        "trialNum": 42,
                        "response": "probably no",
                        "responseCoded": -2
                    },
                    {
                        "rt": 9475,
                        "swatch": "BI2A00048",
                        "trialNum": 43,
                        "response": "probably no",
                        "responseCoded": -2
                    },
                    {
                        "rt": 9515,
                        "swatch": "BI2A00032",
                        "trialNum": 44,
                        "response": "probably no",
                        "responseCoded": -2
                    },
                    {
                        "rt": 8850,
                        "swatch": "BI2A00017",
                        "trialNum": 45,
                        "response": "probably no",
                        "responseCoded": -2
                    },
                    {
                        "rt": 10651,
                        "swatch": "BI2A00026",
                        "trialNum": 46,
                        "response": "probably no",
                        "responseCoded": -2
                    },
                    {
                        "rt": 7618,
                        "swatch": "BI2A00043",
                        "trialNum": 47,
                        "response": "probably no",
                        "responseCoded": -2
                    },
                    {
                        "rt": 9245,
                        "swatch": "BI2A00038",
                        "trialNum": 48,
                        "response": "probably no",
                        "responseCoded": -2
                    }
                ],
                "gender": "male",
                "age": "34",
                "comments": "no",
                "religion": [
                    "hinduism"
                ],
                "condition": "hungry",
                "fingerprintData": {
                    "ip": "1.39.33.67",
                    "screenHeight": 371,
                    "plugins": [],
                    "timezone": -330,
                    "colorDepth": 4,
                    "screenWidth": 300,
                    "geo": {
                        "city": "Mumbai",
                        "region_code": "MH",
                        "region_name": "Maharashtra",
                        "ip": "1.39.33.67",
                        "time_zone": "Asia/Kolkata",
                        "longitude": 72.826,
                        "metro_code": 0,
                        "latitude": 18.975,
                        "country_code": "IN",
                        "country_name": "India",
                        "zip_code": ""
                    },
                    "browser": "Opera/9.80 (Android; Opera Mini/7.5.35702/35.7770; U; en) Presto/2.8.119 Version/11.10"
                },
                "ethnicity": [
                    "asian_southAsian"
                ]
            }
        }
    },
    "AcceptTime": "2015-03-03T09:16:40Z",
    "HITId": "3T8DUCXY0NFS8HJNPUVH4PK7OP69T8",
    "Assignment": "",
    "AssignmentStatus": "Submitted",
    "SubmitTime": "2015-03-03T09:43:31Z"
}