{
    "ApprovalTime": "2015-03-03T10:17:36Z",
    "AutoApprovalTime": "2015-03-03T10:12:38Z",
    "AssignmentId": "38SKSKU7R26ZMP2EAH44KB5CQGYILX",
    "WorkerId": "A7J4Y6FOPZ8YV",
    "answers": {
        "data": {
            "trials": [],
            "condition": "pain",
            "allData": {
                "education": "college_bachDegree",
                "englishNative": "no",
                "trialData": [
                    {
                        "rt": 19621,
                        "swatch": "BI2A00040",
                        "trialNum": 1,
                        "response": "equally yes/no",
                        "responseCoded": 0
                    },
                    {
                        "rt": 6706,
                        "swatch": "BI2A00023",
                        "trialNum": 2,
                        "response": "probably yes",
                        "responseCoded": 2
                    },
                    {
                        "rt": 5477,
                        "swatch": "BI2A00028",
                        "trialNum": 3,
                        "response": "maybe yes",
                        "responseCoded": 1
                    },
                    {
                        "rt": 11720,
                        "swatch": "BI2A00004",
                        "trialNum": 4,
                        "response": "maybe yes",
                        "responseCoded": 1
                    },
                    {
                        "rt": 2505,
                        "swatch": "BI2A00045",
                        "trialNum": 5,
                        "response": "maybe yes",
                        "responseCoded": 1
                    },
                    {
                        "rt": 16238,
                        "swatch": "BI2A00006",
                        "trialNum": 6,
                        "response": "probably yes",
                        "responseCoded": 2
                    },
                    {
                        "rt": 3952,
                        "swatch": "BI2A00048",
                        "trialNum": 7,
                        "response": "maybe yes",
                        "responseCoded": 1
                    },
                    {
                        "rt": 2624,
                        "swatch": "BI2A00003",
                        "trialNum": 8,
                        "response": "definitely yes",
                        "responseCoded": 3
                    },
                    {
                        "rt": 4073,
                        "swatch": "BI2A00042",
                        "trialNum": 9,
                        "response": "probably yes",
                        "responseCoded": 2
                    },
                    {
                        "rt": 2407,
                        "swatch": "BI2A00007",
                        "trialNum": 10,
                        "response": "definitely yes",
                        "responseCoded": 3
                    },
                    {
                        "rt": 2298,
                        "swatch": "BI2A00047",
                        "trialNum": 11,
                        "response": "definitely yes",
                        "responseCoded": 3
                    },
                    {
                        "rt": 3631,
                        "swatch": "BI2A00041",
                        "trialNum": 12,
                        "response": "definitely no",
                        "responseCoded": 3
                    },
                    {
                        "rt": 2181,
                        "swatch": "BI2A00044",
                        "trialNum": 13,
                        "response": "definitely no",
                        "responseCoded": 3
                    },
                    {
                        "rt": 3730,
                        "swatch": "BI2A00029",
                        "trialNum": 14,
                        "response": "maybe yes",
                        "responseCoded": 1
                    },
                    {
                        "rt": 2564,
                        "swatch": "BI2A00030",
                        "trialNum": 15,
                        "response": "probably no",
                        "responseCoded": -2
                    },
                    {
                        "rt": 2412,
                        "swatch": "BI2A00019",
                        "trialNum": 16,
                        "response": "definitely yes",
                        "responseCoded": 3
                    },
                    {
                        "rt": 4222,
                        "swatch": "BI2A00020",
                        "trialNum": 17,
                        "response": "maybe yes",
                        "responseCoded": 1
                    },
                    {
                        "rt": 2307,
                        "swatch": "BI2A00033",
                        "trialNum": 18,
                        "response": "probably no",
                        "responseCoded": -2
                    },
                    {
                        "rt": 2382,
                        "swatch": "BI2A00018",
                        "trialNum": 19,
                        "response": "definitely no",
                        "responseCoded": 3
                    },
                    {
                        "rt": 3114,
                        "swatch": "BI2A00001",
                        "trialNum": 20,
                        "response": "probably yes",
                        "responseCoded": 2
                    },
                    {
                        "rt": 1890,
                        "swatch": "BI2A00046",
                        "trialNum": 21,
                        "response": "probably yes",
                        "responseCoded": 2
                    },
                    {
                        "rt": 6211,
                        "swatch": "BI2A00014",
                        "trialNum": 22,
                        "response": "maybe yes",
                        "responseCoded": 1
                    },
                    {
                        "rt": 2457,
                        "swatch": "BI2A00002",
                        "trialNum": 23,
                        "response": "definitely yes",
                        "responseCoded": 3
                    },
                    {
                        "rt": 2472,
                        "swatch": "BI2A00022",
                        "trialNum": 24,
                        "response": "probably yes",
                        "responseCoded": 2
                    },
                    {
                        "rt": 2729,
                        "swatch": "BI2A00036",
                        "trialNum": 25,
                        "response": "probably yes",
                        "responseCoded": 2
                    },
                    {
                        "rt": 4896,
                        "swatch": "BI2A00031",
                        "trialNum": 26,
                        "response": "equally yes/no",
                        "responseCoded": 0
                    },
                    {
                        "rt": 5073,
                        "swatch": "BI2A00017",
                        "trialNum": 27,
                        "response": "maybe no",
                        "responseCoded": -1
                    },
                    {
                        "rt": 2694,
                        "swatch": "BI2A00011",
                        "trialNum": 28,
                        "response": "definitely yes",
                        "responseCoded": 3
                    },
                    {
                        "rt": 3438,
                        "swatch": "BI2A00016",
                        "trialNum": 29,
                        "response": "probably yes",
                        "responseCoded": 2
                    },
                    {
                        "rt": 7714,
                        "swatch": "BI2A00021",
                        "trialNum": 30,
                        "response": "maybe yes",
                        "responseCoded": 1
                    },
                    {
                        "rt": 1709,
                        "swatch": "BI2A00025",
                        "trialNum": 31,
                        "response": "definitely yes",
                        "responseCoded": 3
                    },
                    {
                        "rt": 2396,
                        "swatch": "BI2A00035",
                        "trialNum": 32,
                        "response": "probably no",
                        "responseCoded": -2
                    },
                    {
                        "rt": 2838,
                        "swatch": "BI2A00039",
                        "trialNum": 33,
                        "response": "probably no",
                        "responseCoded": -2
                    },
                    {
                        "rt": 6175,
                        "swatch": "BI2A00043",
                        "trialNum": 34,
                        "response": "equally yes/no",
                        "responseCoded": 0
                    },
                    {
                        "rt": 2348,
                        "swatch": "BI2A00026",
                        "trialNum": 35,
                        "response": "probably yes",
                        "responseCoded": 2
                    },
                    {
                        "rt": 1791,
                        "swatch": "BI2A00008",
                        "trialNum": 36,
                        "response": "definitely yes",
                        "responseCoded": 3
                    },
                    {
                        "rt": 4578,
                        "swatch": "BI2A00032",
                        "trialNum": 37,
                        "response": "equally yes/no",
                        "responseCoded": 0
                    },
                    {
                        "rt": 7038,
                        "swatch": "BI2A00012",
                        "trialNum": 38,
                        "response": "maybe yes",
                        "responseCoded": 1
                    },
                    {
                        "rt": 5105,
                        "swatch": "BI2A00005",
                        "trialNum": 39,
                        "response": "definitely yes",
                        "responseCoded": 3
                    },
                    {
                        "rt": 1976,
                        "swatch": "BI2A00013",
                        "trialNum": 40,
                        "response": "probably yes",
                        "responseCoded": 2
                    },
                    {
                        "rt": 4080,
                        "swatch": "BI2A00027",
                        "trialNum": 41,
                        "response": "probably no",
                        "responseCoded": -2
                    },
                    {
                        "rt": 2237,
                        "swatch": "BI2A00015",
                        "trialNum": 42,
                        "response": "definitely yes",
                        "responseCoded": 3
                    },
                    {
                        "rt": 3502,
                        "swatch": "BI2A00037",
                        "trialNum": 43,
                        "response": "maybe no",
                        "responseCoded": -1
                    },
                    {
                        "rt": 2639,
                        "swatch": "BI2A00010",
                        "trialNum": 44,
                        "response": "probably yes",
                        "responseCoded": 2
                    },
                    {
                        "rt": 4736,
                        "swatch": "BI2A00038",
                        "trialNum": 45,
                        "response": "probably no",
                        "responseCoded": -2
                    },
                    {
                        "rt": 2426,
                        "swatch": "BI2A00034",
                        "trialNum": 46,
                        "response": "probably no",
                        "responseCoded": -2
                    },
                    {
                        "rt": 2705,
                        "swatch": "BI2A00009",
                        "trialNum": 47,
                        "response": "probably yes",
                        "responseCoded": 2
                    },
                    {
                        "rt": 4852,
                        "swatch": "BI2A00024",
                        "trialNum": 48,
                        "response": "definitely yes",
                        "responseCoded": 3
                    }
                ],
                "gender": "male",
                "age": "32",
                "comments": "",
                "religion": [
                    "buddhism",
                    "hinduism"
                ],
                "condition": "pain",
                "fingerprintData": {},
                "ethnicity": [
                    "asian_southAsian"
                ]
            }
        }
    },
    "AcceptTime": "2015-03-03T09:44:48Z",
    "HITId": "3T8DUCXY0NFS8HJNPUVH4PK7OP69T8",
    "Assignment": "",
    "AssignmentStatus": "Approved",
    "SubmitTime": "2015-03-03T10:07:38Z"
}