{
    "AutoApprovalTime": "2015-03-03T09:24:12Z",
    "AssignmentId": "392CY0QWG203OHVT4P5NYU314T1I40",
    "WorkerId": "A14J86Y1L3RCQ0",
    "answers": {
        "data": {
            "trials": [],
            "condition": "pain",
            "allData": {
                "education": "college_assocDegree",
                "englishNative": "yes_only",
                "trialData": [
                    {
                        "rt": 11405,
                        "swatch": "BI2A00005",
                        "trialNum": 1,
                        "response": "definitely no",
                        "responseCoded": 3
                    },
                    {
                        "rt": 7631,
                        "swatch": "BI2A00001",
                        "trialNum": 2,
                        "response": "definitely no",
                        "responseCoded": 3
                    },
                    {
                        "rt": 7331,
                        "swatch": "BI2A00013",
                        "trialNum": 3,
                        "response": "definitely no",
                        "responseCoded": 3
                    },
                    {
                        "rt": 4164,
                        "swatch": "BI2A00020",
                        "trialNum": 4,
                        "response": "maybe yes",
                        "responseCoded": 1
                    },
                    {
                        "rt": 2300,
                        "swatch": "BI2A00002",
                        "trialNum": 5,
                        "response": "definitely no",
                        "responseCoded": 3
                    },
                    {
                        "rt": 6917,
                        "swatch": "BI2A00045",
                        "trialNum": 6,
                        "response": "maybe no",
                        "responseCoded": -1
                    },
                    {
                        "rt": 4317,
                        "swatch": "BI2A00031",
                        "trialNum": 7,
                        "response": "probably no",
                        "responseCoded": -2
                    },
                    {
                        "rt": 6603,
                        "swatch": "BI2A00016",
                        "trialNum": 8,
                        "response": "probably yes",
                        "responseCoded": 2
                    },
                    {
                        "rt": 12036,
                        "swatch": "BI2A00004",
                        "trialNum": 9,
                        "response": "maybe yes",
                        "responseCoded": 1
                    },
                    {
                        "rt": 2204,
                        "swatch": "BI2A00044",
                        "trialNum": 10,
                        "response": "probably no",
                        "responseCoded": -2
                    },
                    {
                        "rt": 4617,
                        "swatch": "BI2A00024",
                        "trialNum": 11,
                        "response": "definitely no",
                        "responseCoded": 3
                    },
                    {
                        "rt": 6421,
                        "swatch": "BI2A00025",
                        "trialNum": 12,
                        "response": "maybe no",
                        "responseCoded": -1
                    },
                    {
                        "rt": 9146,
                        "swatch": "BI2A00029",
                        "trialNum": 13,
                        "response": "probably no",
                        "responseCoded": -2
                    },
                    {
                        "rt": 5148,
                        "swatch": "BI2A00033",
                        "trialNum": 14,
                        "response": "maybe yes",
                        "responseCoded": 1
                    },
                    {
                        "rt": 3780,
                        "swatch": "BI2A00012",
                        "trialNum": 15,
                        "response": "probably yes",
                        "responseCoded": 2
                    },
                    {
                        "rt": 3117,
                        "swatch": "BI2A00038",
                        "trialNum": 16,
                        "response": "probably no",
                        "responseCoded": -2
                    },
                    {
                        "rt": 6243,
                        "swatch": "BI2A00022",
                        "trialNum": 17,
                        "response": "probably yes",
                        "responseCoded": 2
                    },
                    {
                        "rt": 6066,
                        "swatch": "BI2A00006",
                        "trialNum": 18,
                        "response": "definitely yes",
                        "responseCoded": 3
                    },
                    {
                        "rt": 4806,
                        "swatch": "BI2A00017",
                        "trialNum": 19,
                        "response": "maybe no",
                        "responseCoded": -1
                    },
                    {
                        "rt": 2203,
                        "swatch": "BI2A00008",
                        "trialNum": 20,
                        "response": "probably yes",
                        "responseCoded": 2
                    },
                    {
                        "rt": 2556,
                        "swatch": "BI2A00041",
                        "trialNum": 21,
                        "response": "maybe yes",
                        "responseCoded": 1
                    },
                    {
                        "rt": 10444,
                        "swatch": "BI2A00023",
                        "trialNum": 22,
                        "response": "probably yes",
                        "responseCoded": 2
                    },
                    {
                        "rt": 2628,
                        "swatch": "BI2A00032",
                        "trialNum": 23,
                        "response": "maybe no",
                        "responseCoded": -1
                    },
                    {
                        "rt": 2189,
                        "swatch": "BI2A00007",
                        "trialNum": 24,
                        "response": "definitely yes",
                        "responseCoded": 3
                    },
                    {
                        "rt": 1843,
                        "swatch": "BI2A00021",
                        "trialNum": 25,
                        "response": "probably no",
                        "responseCoded": -2
                    },
                    {
                        "rt": 5432,
                        "swatch": "BI2A00009",
                        "trialNum": 26,
                        "response": "probably yes",
                        "responseCoded": 2
                    },
                    {
                        "rt": 6821,
                        "swatch": "BI2A00040",
                        "trialNum": 27,
                        "response": "probably no",
                        "responseCoded": -2
                    },
                    {
                        "rt": 8289,
                        "swatch": "BI2A00030",
                        "trialNum": 28,
                        "response": "maybe yes",
                        "responseCoded": 1
                    },
                    {
                        "rt": 3252,
                        "swatch": "BI2A00014",
                        "trialNum": 29,
                        "response": "maybe yes",
                        "responseCoded": 1
                    },
                    {
                        "rt": 3949,
                        "swatch": "BI2A00043",
                        "trialNum": 30,
                        "response": "definitely yes",
                        "responseCoded": 3
                    },
                    {
                        "rt": 2423,
                        "swatch": "BI2A00011",
                        "trialNum": 31,
                        "response": "maybe no",
                        "responseCoded": -1
                    },
                    {
                        "rt": 5772,
                        "swatch": "BI2A00046",
                        "trialNum": 32,
                        "response": "probably yes",
                        "responseCoded": 2
                    },
                    {
                        "rt": 2396,
                        "swatch": "BI2A00018",
                        "trialNum": 33,
                        "response": "maybe no",
                        "responseCoded": -1
                    },
                    {
                        "rt": 2132,
                        "swatch": "BI2A00027",
                        "trialNum": 34,
                        "response": "definitely no",
                        "responseCoded": 3
                    },
                    {
                        "rt": 3004,
                        "swatch": "BI2A00026",
                        "trialNum": 35,
                        "response": "definitely no",
                        "responseCoded": 3
                    },
                    {
                        "rt": 2269,
                        "swatch": "BI2A00019",
                        "trialNum": 36,
                        "response": "probably yes",
                        "responseCoded": 2
                    },
                    {
                        "rt": 5900,
                        "swatch": "BI2A00034",
                        "trialNum": 37,
                        "response": "maybe yes",
                        "responseCoded": 1
                    },
                    {
                        "rt": 4236,
                        "swatch": "BI2A00003",
                        "trialNum": 38,
                        "response": "definitely yes",
                        "responseCoded": 3
                    },
                    {
                        "rt": 2804,
                        "swatch": "BI2A00015",
                        "trialNum": 39,
                        "response": "maybe no",
                        "responseCoded": -1
                    },
                    {
                        "rt": 3419,
                        "swatch": "BI2A00035",
                        "trialNum": 40,
                        "response": "maybe no",
                        "responseCoded": -1
                    },
                    {
                        "rt": 2700,
                        "swatch": "BI2A00010",
                        "trialNum": 41,
                        "response": "probably no",
                        "responseCoded": -2
                    },
                    {
                        "rt": 3092,
                        "swatch": "BI2A00047",
                        "trialNum": 42,
                        "response": "probably no",
                        "responseCoded": -2
                    },
                    {
                        "rt": 1908,
                        "swatch": "BI2A00036",
                        "trialNum": 43,
                        "response": "maybe yes",
                        "responseCoded": 1
                    },
                    {
                        "rt": 1739,
                        "swatch": "BI2A00037",
                        "trialNum": 44,
                        "response": "definitely yes",
                        "responseCoded": 3
                    },
                    {
                        "rt": 2372,
                        "swatch": "BI2A00028",
                        "trialNum": 45,
                        "response": "maybe no",
                        "responseCoded": -1
                    },
                    {
                        "rt": 2628,
                        "swatch": "BI2A00039",
                        "trialNum": 46,
                        "response": "definitely yes",
                        "responseCoded": 3
                    },
                    {
                        "rt": 4606,
                        "swatch": "BI2A00042",
                        "trialNum": 47,
                        "response": "maybe yes",
                        "responseCoded": 1
                    },
                    {
                        "rt": 1749,
                        "swatch": "BI2A00048",
                        "trialNum": 48,
                        "response": "probably no",
                        "responseCoded": -2
                    }
                ],
                "gender": "male",
                "age": "35",
                "comments": "Good survey",
                "religion": [
                    "christianity_catholic"
                ],
                "condition": "pain",
                "fingerprintData": {
                    "ip": "103.227.97.72",
                    "screenHeight": 768,
                    "plugins": [
                        {
                            "description": "Enables Widevine licenses for playback of HTML audio/video content. (version: 1.4.6.758)",
                            "filename": "widevinecdmadapter.dll"
                        },
                        {
                            "description": "Shockwave Flash 16.0 r0",
                            "filename": "pepflashplayer.dll"
                        },
                        {
                            "description": "This plugin allows you to securely access other computers that have been shared with you. To use this plugin you must first install the <a href=\"https://chrome.google.com/remotedesktop\">Chrome Remote Desktop</a> webapp.",
                            "filename": "internal-remoting-viewer"
                        },
                        {
                            "description": "",
                            "filename": "internal-nacl-plugin"
                        },
                        {
                            "description": "",
                            "filename": "pdf.dll"
                        },
                        {
                            "description": "The QuickTime Plugin allows you to view a wide variety of multimedia content in Web pages. For more information, visit the <A HREF=http://www.apple.com/quicktime/>QuickTime</A> Web site.",
                            "filename": "npqtplugin.dll"
                        },
                        {
                            "description": "The QuickTime Plugin allows you to view a wide variety of multimedia content in Web pages. For more information, visit the <A HREF=http://www.apple.com/quicktime/>QuickTime</A> Web site.",
                            "filename": "npqtplugin2.dll"
                        },
                        {
                            "description": "The QuickTime Plugin allows you to view a wide variety of multimedia content in Web pages. For more information, visit the <A HREF=http://www.apple.com/quicktime/>QuickTime</A> Web site.",
                            "filename": "npqtplugin3.dll"
                        },
                        {
                            "description": "The QuickTime Plugin allows you to view a wide variety of multimedia content in Web pages. For more information, visit the <A HREF=http://www.apple.com/quicktime/>QuickTime</A> Web site.",
                            "filename": "npqtplugin4.dll"
                        },
                        {
                            "description": "The QuickTime Plugin allows you to view a wide variety of multimedia content in Web pages. For more information, visit the <A HREF=http://www.apple.com/quicktime/>QuickTime</A> Web site.",
                            "filename": "npqtplugin5.dll"
                        },
                        {
                            "description": "Foxit Reader Plug-In For Firefox and Netscape",
                            "filename": "npFoxitReaderPlugin.dll"
                        },
                        {
                            "description": "Google Update",
                            "filename": "npGoogleUpdate3.dll"
                        },
                        {
                            "description": "NPRuntime Script Plug-in Library for Java(TM) Deploy",
                            "filename": "npDeployJava1.dll"
                        },
                        {
                            "description": "Next Generation Java Plug-in 10.60.2 for Mozilla browsers",
                            "filename": "npjp2.dll"
                        },
                        {
                            "description": "5.1.20125.0",
                            "filename": "npctrl.dll"
                        },
                        {
                            "description": "VLC media player Web Plugin 2.1.3",
                            "filename": "npvlc.dll"
                        },
                        {
                            "description": "Unity Player 4.5.1f3",
                            "filename": "npUnity3D32.dll"
                        },
                        {
                            "description": "Shockwave Flash 16.0 r0",
                            "filename": "NPSWF32_16_0_0_305.dll"
                        }
                    ],
                    "timezone": -330,
                    "colorDepth": 24,
                    "screenWidth": 1024,
                    "geo": {
                        "city": "Bangalore",
                        "region_code": "KA",
                        "region_name": "Karnataka",
                        "ip": "103.227.97.72",
                        "time_zone": "Asia/Kolkata",
                        "longitude": 77.583,
                        "metro_code": 0,
                        "latitude": 12.983,
                        "country_code": "IN",
                        "country_name": "India",
                        "zip_code": ""
                    },
                    "browser": "Mozilla/5.0 (Windows NT 6.1; WOW64) AppleWebKit/537.36 (KHTML, like Gecko) Chrome/40.0.2214.115 Safari/537.36"
                },
                "ethnicity": [
                    "asian_southAsian"
                ]
            }
        }
    },
    "AcceptTime": "2015-03-03T09:11:42Z",
    "HITId": "3T8DUCXY0NFS8HJNPUVH4PK7OP69T8",
    "Assignment": "",
    "AssignmentStatus": "Submitted",
    "SubmitTime": "2015-03-03T09:19:12Z"
}