{
    "ApprovalTime": "2015-03-03T09:12:36Z",
    "AutoApprovalTime": "2015-03-03T09:08:52Z",
    "AssignmentId": "39GAF6DQWS9RIOIAGEL4FLMS0BNV1X",
    "WorkerId": "A1STXCESBVVV1J",
    "answers": {
        "data": {
            "trials": [],
            "condition": "animal",
            "allData": {
                "education": "college_bachDegree",
                "englishNative": "no",
                "trialData": [
                    {
                        "rt": 10761,
                        "swatch": "BI2A00025",
                        "trialNum": 1,
                        "response": "definitely no",
                        "responseCoded": 3
                    },
                    {
                        "rt": 2833,
                        "swatch": "BI2A00031",
                        "trialNum": 2,
                        "response": "definitely no",
                        "responseCoded": 3
                    },
                    {
                        "rt": 5898,
                        "swatch": "BI2A00007",
                        "trialNum": 3,
                        "response": "definitely yes",
                        "responseCoded": 3
                    },
                    {
                        "rt": 5241,
                        "swatch": "BI2A00032",
                        "trialNum": 4,
                        "response": "probably no",
                        "responseCoded": -2
                    },
                    {
                        "rt": 1510,
                        "swatch": "BI2A00040",
                        "trialNum": 5,
                        "response": "definitely no",
                        "responseCoded": 3
                    },
                    {
                        "rt": 1662,
                        "swatch": "BI2A00011",
                        "trialNum": 6,
                        "response": "definitely yes",
                        "responseCoded": 3
                    },
                    {
                        "rt": 1526,
                        "swatch": "BI2A00002",
                        "trialNum": 7,
                        "response": "definitely yes",
                        "responseCoded": 3
                    },
                    {
                        "rt": 2504,
                        "swatch": "BI2A00039",
                        "trialNum": 8,
                        "response": "definitely no",
                        "responseCoded": 3
                    },
                    {
                        "rt": 2615,
                        "swatch": "BI2A00019",
                        "trialNum": 9,
                        "response": "equally yes/no",
                        "responseCoded": 0
                    },
                    {
                        "rt": 1713,
                        "swatch": "BI2A00006",
                        "trialNum": 10,
                        "response": "definitely yes",
                        "responseCoded": 3
                    },
                    {
                        "rt": 1802,
                        "swatch": "BI2A00027",
                        "trialNum": 11,
                        "response": "definitely no",
                        "responseCoded": 3
                    },
                    {
                        "rt": 4604,
                        "swatch": "BI2A00034",
                        "trialNum": 12,
                        "response": "equally yes/no",
                        "responseCoded": 0
                    },
                    {
                        "rt": 3510,
                        "swatch": "BI2A00041",
                        "trialNum": 13,
                        "response": "probably no",
                        "responseCoded": -2
                    },
                    {
                        "rt": 2217,
                        "swatch": "BI2A00013",
                        "trialNum": 14,
                        "response": "definitely yes",
                        "responseCoded": 3
                    },
                    {
                        "rt": 4653,
                        "swatch": "BI2A00029",
                        "trialNum": 15,
                        "response": "equally yes/no",
                        "responseCoded": 0
                    },
                    {
                        "rt": 2412,
                        "swatch": "BI2A00018",
                        "trialNum": 16,
                        "response": "equally yes/no",
                        "responseCoded": 0
                    },
                    {
                        "rt": 5099,
                        "swatch": "BI2A00023",
                        "trialNum": 17,
                        "response": "maybe yes",
                        "responseCoded": 1
                    },
                    {
                        "rt": 3133,
                        "swatch": "BI2A00008",
                        "trialNum": 18,
                        "response": "definitely yes",
                        "responseCoded": 3
                    },
                    {
                        "rt": 1947,
                        "swatch": "BI2A00003",
                        "trialNum": 19,
                        "response": "definitely yes",
                        "responseCoded": 3
                    },
                    {
                        "rt": 3148,
                        "swatch": "BI2A00028",
                        "trialNum": 20,
                        "response": "maybe no",
                        "responseCoded": -1
                    },
                    {
                        "rt": 2294,
                        "swatch": "BI2A00037",
                        "trialNum": 21,
                        "response": "maybe no",
                        "responseCoded": -1
                    },
                    {
                        "rt": 2181,
                        "swatch": "BI2A00022",
                        "trialNum": 22,
                        "response": "probably no",
                        "responseCoded": -2
                    },
                    {
                        "rt": 2295,
                        "swatch": "BI2A00001",
                        "trialNum": 23,
                        "response": "probably yes",
                        "responseCoded": 2
                    },
                    {
                        "rt": 2970,
                        "swatch": "BI2A00030",
                        "trialNum": 24,
                        "response": "definitely no",
                        "responseCoded": 3
                    },
                    {
                        "rt": 2202,
                        "swatch": "BI2A00047",
                        "trialNum": 25,
                        "response": "definitely no",
                        "responseCoded": 3
                    },
                    {
                        "rt": 1816,
                        "swatch": "BI2A00033",
                        "trialNum": 26,
                        "response": "probably no",
                        "responseCoded": -2
                    },
                    {
                        "rt": 1791,
                        "swatch": "BI2A00026",
                        "trialNum": 27,
                        "response": "probably yes",
                        "responseCoded": 2
                    },
                    {
                        "rt": 2717,
                        "swatch": "BI2A00021",
                        "trialNum": 28,
                        "response": "probably no",
                        "responseCoded": -2
                    },
                    {
                        "rt": 1500,
                        "swatch": "BI2A00046",
                        "trialNum": 29,
                        "response": "definitely no",
                        "responseCoded": 3
                    },
                    {
                        "rt": 2480,
                        "swatch": "BI2A00015",
                        "trialNum": 30,
                        "response": "definitely yes",
                        "responseCoded": 3
                    },
                    {
                        "rt": 1345,
                        "swatch": "BI2A00045",
                        "trialNum": 31,
                        "response": "definitely no",
                        "responseCoded": 3
                    },
                    {
                        "rt": 1652,
                        "swatch": "BI2A00036",
                        "trialNum": 32,
                        "response": "definitely no",
                        "responseCoded": 3
                    },
                    {
                        "rt": 1655,
                        "swatch": "BI2A00048",
                        "trialNum": 33,
                        "response": "definitely no",
                        "responseCoded": 3
                    },
                    {
                        "rt": 2675,
                        "swatch": "BI2A00042",
                        "trialNum": 34,
                        "response": "definitely no",
                        "responseCoded": 3
                    },
                    {
                        "rt": 1648,
                        "swatch": "BI2A00009",
                        "trialNum": 35,
                        "response": "definitely yes",
                        "responseCoded": 3
                    },
                    {
                        "rt": 1705,
                        "swatch": "BI2A00005",
                        "trialNum": 36,
                        "response": "definitely yes",
                        "responseCoded": 3
                    },
                    {
                        "rt": 3752,
                        "swatch": "BI2A00016",
                        "trialNum": 37,
                        "response": "equally yes/no",
                        "responseCoded": 0
                    },
                    {
                        "rt": 2612,
                        "swatch": "BI2A00014",
                        "trialNum": 38,
                        "response": "equally yes/no",
                        "responseCoded": 0
                    },
                    {
                        "rt": 1847,
                        "swatch": "BI2A00038",
                        "trialNum": 39,
                        "response": "definitely no",
                        "responseCoded": 3
                    },
                    {
                        "rt": 3326,
                        "swatch": "BI2A00010",
                        "trialNum": 40,
                        "response": "equally yes/no",
                        "responseCoded": 0
                    },
                    {
                        "rt": 3224,
                        "swatch": "BI2A00012",
                        "trialNum": 41,
                        "response": "equally yes/no",
                        "responseCoded": 0
                    },
                    {
                        "rt": 1414,
                        "swatch": "BI2A00043",
                        "trialNum": 42,
                        "response": "definitely no",
                        "responseCoded": 3
                    },
                    {
                        "rt": 1789,
                        "swatch": "BI2A00035",
                        "trialNum": 43,
                        "response": "definitely no",
                        "responseCoded": 3
                    },
                    {
                        "rt": 1221,
                        "swatch": "BI2A00044",
                        "trialNum": 44,
                        "response": "definitely no",
                        "responseCoded": 3
                    },
                    {
                        "rt": 4368,
                        "swatch": "BI2A00020",
                        "trialNum": 45,
                        "response": "equally yes/no",
                        "responseCoded": 0
                    },
                    {
                        "rt": 1814,
                        "swatch": "BI2A00004",
                        "trialNum": 46,
                        "response": "probably yes",
                        "responseCoded": 2
                    },
                    {
                        "rt": 2746,
                        "swatch": "BI2A00017",
                        "trialNum": 47,
                        "response": "probably no",
                        "responseCoded": -2
                    },
                    {
                        "rt": 3650,
                        "swatch": "BI2A00024",
                        "trialNum": 48,
                        "response": "definitely yes",
                        "responseCoded": 3
                    }
                ],
                "gender": "male",
                "age": "34",
                "comments": "None.",
                "religion": [
                    "hinduism"
                ],
                "condition": "animal",
                "fingerprintData": {
                    "ip": "106.51.138.148",
                    "screenHeight": 900,
                    "plugins": [
                        {
                            "description": "Google Update",
                            "filename": "npGoogleUpdate3.dll"
                        },
                        {
                            "description": "Inquisit Mozilla Plugin 4.0.8.0",
                            "filename": "npInquisit.dll"
                        },
                        {
                            "description": "Shockwave Flash 16.0 r0",
                            "filename": "NPSWF32_16_0_0_305.dll"
                        },
                        {
                            "description": "Unity Player 4.6.0f3",
                            "filename": "npUnity3D32.dll"
                        }
                    ],
                    "timezone": -330,
                    "colorDepth": 24,
                    "screenWidth": 1440,
                    "geo": {
                        "city": "Bangalore",
                        "region_code": "KA",
                        "region_name": "Karnataka",
                        "ip": "106.51.138.148",
                        "time_zone": "Asia/Kolkata",
                        "longitude": 77.583,
                        "metro_code": 0,
                        "latitude": 12.983,
                        "country_code": "IN",
                        "country_name": "India",
                        "zip_code": ""
                    },
                    "browser": "Mozilla/5.0 (Windows NT 6.1; rv:36.0) Gecko/20100101 Firefox/36.0"
                },
                "ethnicity": [
                    "other_prefNo"
                ]
            }
        }
    },
    "AcceptTime": "2015-03-03T08:58:48Z",
    "HITId": "3T8DUCXY0NFS8HJNPUVH4PK7OP69T8",
    "Assignment": "",
    "AssignmentStatus": "Approved",
    "SubmitTime": "2015-03-03T09:03:52Z"
}