{
    "AutoApprovalTime": "2015-03-03T09:17:18Z",
    "AssignmentId": "39GHHAVOMG0ZJSFZM7QNAVI1H8RJ4E",
    "WorkerId": "ASE6XJ2W05HQN",
    "answers": {
        "data": {
            "trials": [],
            "condition": "happy",
            "allData": {
                "education": "grad_degree",
                "englishNative": "no",
                "trialData": [
                    {
                        "rt": 8111,
                        "swatch": "BI2A00010",
                        "trialNum": 1,
                        "response": "definitely no",
                        "responseCoded": 3
                    },
                    {
                        "rt": 55531,
                        "swatch": "BI2A00044",
                        "trialNum": 2,
                        "response": "equally yes/no",
                        "responseCoded": 0
                    },
                    {
                        "rt": 3136,
                        "swatch": "BI2A00039",
                        "trialNum": 3,
                        "response": "maybe no",
                        "responseCoded": -1
                    },
                    {
                        "rt": 14540,
                        "swatch": "BI2A00008",
                        "trialNum": 4,
                        "response": "definitely no",
                        "responseCoded": 3
                    },
                    {
                        "rt": 2431,
                        "swatch": "BI2A00011",
                        "trialNum": 5,
                        "response": "definitely no",
                        "responseCoded": 3
                    },
                    {
                        "rt": 4248,
                        "swatch": "BI2A00041",
                        "trialNum": 6,
                        "response": "maybe no",
                        "responseCoded": -1
                    },
                    {
                        "rt": 3645,
                        "swatch": "BI2A00036",
                        "trialNum": 7,
                        "response": "maybe yes",
                        "responseCoded": 1
                    },
                    {
                        "rt": 1723,
                        "swatch": "BI2A00048",
                        "trialNum": 8,
                        "response": "maybe yes",
                        "responseCoded": 1
                    },
                    {
                        "rt": 2082,
                        "swatch": "BI2A00004",
                        "trialNum": 9,
                        "response": "equally yes/no",
                        "responseCoded": 0
                    },
                    {
                        "rt": 1865,
                        "swatch": "BI2A00030",
                        "trialNum": 10,
                        "response": "maybe yes",
                        "responseCoded": 1
                    },
                    {
                        "rt": 2109,
                        "swatch": "BI2A00031",
                        "trialNum": 11,
                        "response": "equally yes/no",
                        "responseCoded": 0
                    },
                    {
                        "rt": 2359,
                        "swatch": "BI2A00003",
                        "trialNum": 12,
                        "response": "probably no",
                        "responseCoded": -2
                    },
                    {
                        "rt": 1531,
                        "swatch": "BI2A00035",
                        "trialNum": 13,
                        "response": "probably yes",
                        "responseCoded": 2
                    },
                    {
                        "rt": 2037,
                        "swatch": "BI2A00016",
                        "trialNum": 14,
                        "response": "equally yes/no",
                        "responseCoded": 0
                    },
                    {
                        "rt": 1644,
                        "swatch": "BI2A00012",
                        "trialNum": 15,
                        "response": "equally yes/no",
                        "responseCoded": 0
                    },
                    {
                        "rt": 2587,
                        "swatch": "BI2A00046",
                        "trialNum": 16,
                        "response": "probably yes",
                        "responseCoded": 2
                    },
                    {
                        "rt": 2175,
                        "swatch": "BI2A00026",
                        "trialNum": 17,
                        "response": "equally yes/no",
                        "responseCoded": 0
                    },
                    {
                        "rt": 1792,
                        "swatch": "BI2A00028",
                        "trialNum": 18,
                        "response": "maybe no",
                        "responseCoded": -1
                    },
                    {
                        "rt": 1877,
                        "swatch": "BI2A00020",
                        "trialNum": 19,
                        "response": "maybe no",
                        "responseCoded": -1
                    },
                    {
                        "rt": 1264,
                        "swatch": "BI2A00019",
                        "trialNum": 20,
                        "response": "maybe no",
                        "responseCoded": -1
                    },
                    {
                        "rt": 1313,
                        "swatch": "BI2A00001",
                        "trialNum": 21,
                        "response": "maybe no",
                        "responseCoded": -1
                    },
                    {
                        "rt": 2737,
                        "swatch": "BI2A00006",
                        "trialNum": 22,
                        "response": "maybe no",
                        "responseCoded": -1
                    },
                    {
                        "rt": 1981,
                        "swatch": "BI2A00043",
                        "trialNum": 23,
                        "response": "probably yes",
                        "responseCoded": 2
                    },
                    {
                        "rt": 2046,
                        "swatch": "BI2A00032",
                        "trialNum": 24,
                        "response": "probably no",
                        "responseCoded": -2
                    },
                    {
                        "rt": 1372,
                        "swatch": "BI2A00022",
                        "trialNum": 25,
                        "response": "probably no",
                        "responseCoded": -2
                    },
                    {
                        "rt": 1154,
                        "swatch": "BI2A00025",
                        "trialNum": 26,
                        "response": "probably no",
                        "responseCoded": -2
                    },
                    {
                        "rt": 1121,
                        "swatch": "BI2A00017",
                        "trialNum": 27,
                        "response": "probably no",
                        "responseCoded": -2
                    },
                    {
                        "rt": 719,
                        "swatch": "BI2A00034",
                        "trialNum": 28,
                        "response": "probably no",
                        "responseCoded": -2
                    },
                    {
                        "rt": 1014,
                        "swatch": "BI2A00002",
                        "trialNum": 29,
                        "response": "probably no",
                        "responseCoded": -2
                    },
                    {
                        "rt": 1192,
                        "swatch": "BI2A00033",
                        "trialNum": 30,
                        "response": "probably no",
                        "responseCoded": -2
                    },
                    {
                        "rt": 1209,
                        "swatch": "BI2A00045",
                        "trialNum": 31,
                        "response": "probably yes",
                        "responseCoded": 2
                    },
                    {
                        "rt": 1143,
                        "swatch": "BI2A00047",
                        "trialNum": 32,
                        "response": "probably yes",
                        "responseCoded": 2
                    },
                    {
                        "rt": 1934,
                        "swatch": "BI2A00023",
                        "trialNum": 33,
                        "response": "probably no",
                        "responseCoded": -2
                    },
                    {
                        "rt": 2035,
                        "swatch": "BI2A00009",
                        "trialNum": 34,
                        "response": "probably no",
                        "responseCoded": -2
                    },
                    {
                        "rt": 1342,
                        "swatch": "BI2A00018",
                        "trialNum": 35,
                        "response": "probably no",
                        "responseCoded": -2
                    },
                    {
                        "rt": 1506,
                        "swatch": "BI2A00029",
                        "trialNum": 36,
                        "response": "probably no",
                        "responseCoded": -2
                    },
                    {
                        "rt": 916,
                        "swatch": "BI2A00005",
                        "trialNum": 37,
                        "response": "probably no",
                        "responseCoded": -2
                    },
                    {
                        "rt": 1063,
                        "swatch": "BI2A00038",
                        "trialNum": 38,
                        "response": "probably no",
                        "responseCoded": -2
                    },
                    {
                        "rt": 872,
                        "swatch": "BI2A00037",
                        "trialNum": 39,
                        "response": "probably no",
                        "responseCoded": -2
                    },
                    {
                        "rt": 1273,
                        "swatch": "BI2A00024",
                        "trialNum": 40,
                        "response": "probably no",
                        "responseCoded": -2
                    },
                    {
                        "rt": 1024,
                        "swatch": "BI2A00042",
                        "trialNum": 41,
                        "response": "probably no",
                        "responseCoded": -2
                    },
                    {
                        "rt": 1653,
                        "swatch": "BI2A00007",
                        "trialNum": 42,
                        "response": "probably no",
                        "responseCoded": -2
                    },
                    {
                        "rt": 1109,
                        "swatch": "BI2A00015",
                        "trialNum": 43,
                        "response": "probably no",
                        "responseCoded": -2
                    },
                    {
                        "rt": 2006,
                        "swatch": "BI2A00040",
                        "trialNum": 44,
                        "response": "probably no",
                        "responseCoded": -2
                    },
                    {
                        "rt": 2893,
                        "swatch": "BI2A00013",
                        "trialNum": 45,
                        "response": "probably yes",
                        "responseCoded": 2
                    },
                    {
                        "rt": 2715,
                        "swatch": "BI2A00014",
                        "trialNum": 46,
                        "response": "equally yes/no",
                        "responseCoded": 0
                    },
                    {
                        "rt": 2092,
                        "swatch": "BI2A00027",
                        "trialNum": 47,
                        "response": "probably yes",
                        "responseCoded": 2
                    },
                    {
                        "rt": 1863,
                        "swatch": "BI2A00021",
                        "trialNum": 48,
                        "response": "maybe yes",
                        "responseCoded": 1
                    }
                ],
                "gender": "female",
                "age": "30",
                "comments": "",
                "religion": [
                    "christianity_catholic"
                ],
                "condition": "happy",
                "fingerprintData": {
                    "ip": "180.215.122.136",
                    "screenHeight": 768,
                    "plugins": [
                        {
                            "description": "Enables Widevine licenses for playback of HTML audio/video content. (version: 1.4.6.758)",
                            "filename": "widevinecdmadapter.dll"
                        },
                        {
                            "description": "Shockwave Flash 16.0 r0",
                            "filename": "pepflashplayer.dll"
                        },
                        {
                            "description": "This plugin allows you to securely access other computers that have been shared with you. To use this plugin you must first install the <a href=\"https://chrome.google.com/remotedesktop\">Chrome Remote Desktop</a> webapp.",
                            "filename": "internal-remoting-viewer"
                        },
                        {
                            "description": "",
                            "filename": "internal-nacl-plugin"
                        },
                        {
                            "description": "",
                            "filename": "pdf.dll"
                        },
                        {
                            "description": "DRM Netscape Network Object",
                            "filename": "npdrmv2.dll"
                        },
                        {
                            "description": "Npdsplay dll",
                            "filename": "npdsplay.dll"
                        },
                        {
                            "description": "DRM Store Netscape Plugin",
                            "filename": "npwmsdrm.dll"
                        },
                        {
                            "description": "Google Update",
                            "filename": "npGoogleUpdate3.dll"
                        },
                        {
                            "description": "Shockwave Flash 11.1 r102",
                            "filename": "NPSWF32.dll"
                        }
                    ],
                    "timezone": -330,
                    "colorDepth": 24,
                    "screenWidth": 1366,
                    "geo": {
                        "city": "",
                        "region_code": "",
                        "region_name": "",
                        "ip": "180.215.122.136",
                        "time_zone": "Asia/Kolkata",
                        "longitude": 77,
                        "metro_code": 0,
                        "latitude": 20,
                        "country_code": "IN",
                        "country_name": "India",
                        "zip_code": ""
                    },
                    "browser": "Mozilla/5.0 (Windows NT 5.1) AppleWebKit/537.36 (KHTML, like Gecko) Chrome/40.0.2214.115 Safari/537.36"
                },
                "ethnicity": [
                    "asian_southAsian"
                ]
            }
        }
    },
    "AcceptTime": "2015-03-03T09:04:02Z",
    "HITId": "3T8DUCXY0NFS8HJNPUVH4PK7OP69T8",
    "Assignment": "",
    "AssignmentStatus": "Submitted",
    "SubmitTime": "2015-03-03T09:12:18Z"
}