{
    "AutoApprovalTime": "2015-03-03T09:42:59Z",
    "AssignmentId": "3ATPCQ38J9J4G6QFH81HXLJPMMVYAX",
    "WorkerId": "A1MBG9B3REVID5",
    "answers": {
        "data": {
            "trials": [],
            "condition": "hungry",
            "allData": {
                "education": "grad_degree",
                "englishNative": "no",
                "trialData": [
                    {
                        "rt": 7260,
                        "swatch": "BI2A00046",
                        "trialNum": 1,
                        "response": "definitely yes",
                        "responseCoded": 3
                    },
                    {
                        "rt": 8468,
                        "swatch": "BI2A00016",
                        "trialNum": 2,
                        "response": "maybe no",
                        "responseCoded": -1
                    },
                    {
                        "rt": 3841,
                        "swatch": "BI2A00036",
                        "trialNum": 3,
                        "response": "probably no",
                        "responseCoded": -2
                    },
                    {
                        "rt": 3611,
                        "swatch": "BI2A00015",
                        "trialNum": 4,
                        "response": "probably no",
                        "responseCoded": -2
                    },
                    {
                        "rt": 3290,
                        "swatch": "BI2A00034",
                        "trialNum": 5,
                        "response": "equally yes/no",
                        "responseCoded": 0
                    },
                    {
                        "rt": 3843,
                        "swatch": "BI2A00013",
                        "trialNum": 6,
                        "response": "maybe yes",
                        "responseCoded": 1
                    },
                    {
                        "rt": 7869,
                        "swatch": "BI2A00022",
                        "trialNum": 7,
                        "response": "maybe yes",
                        "responseCoded": 1
                    },
                    {
                        "rt": 4483,
                        "swatch": "BI2A00003",
                        "trialNum": 8,
                        "response": "probably no",
                        "responseCoded": -2
                    },
                    {
                        "rt": 12450,
                        "swatch": "BI2A00010",
                        "trialNum": 9,
                        "response": "definitely no",
                        "responseCoded": 3
                    },
                    {
                        "rt": 2676,
                        "swatch": "BI2A00019",
                        "trialNum": 10,
                        "response": "probably yes",
                        "responseCoded": 2
                    },
                    {
                        "rt": 2621,
                        "swatch": "BI2A00042",
                        "trialNum": 11,
                        "response": "maybe yes",
                        "responseCoded": 1
                    },
                    {
                        "rt": 4072,
                        "swatch": "BI2A00033",
                        "trialNum": 12,
                        "response": "definitely yes",
                        "responseCoded": 3
                    },
                    {
                        "rt": 2620,
                        "swatch": "BI2A00001",
                        "trialNum": 13,
                        "response": "probably yes",
                        "responseCoded": 2
                    },
                    {
                        "rt": 2358,
                        "swatch": "BI2A00044",
                        "trialNum": 14,
                        "response": "definitely no",
                        "responseCoded": 3
                    },
                    {
                        "rt": 1955,
                        "swatch": "BI2A00011",
                        "trialNum": 15,
                        "response": "definitely no",
                        "responseCoded": 3
                    },
                    {
                        "rt": 2268,
                        "swatch": "BI2A00031",
                        "trialNum": 16,
                        "response": "definitely no",
                        "responseCoded": 3
                    },
                    {
                        "rt": 2179,
                        "swatch": "BI2A00026",
                        "trialNum": 17,
                        "response": "maybe yes",
                        "responseCoded": 1
                    },
                    {
                        "rt": 3220,
                        "swatch": "BI2A00008",
                        "trialNum": 18,
                        "response": "probably no",
                        "responseCoded": -2
                    },
                    {
                        "rt": 2386,
                        "swatch": "BI2A00039",
                        "trialNum": 19,
                        "response": "equally yes/no",
                        "responseCoded": 0
                    },
                    {
                        "rt": 3725,
                        "swatch": "BI2A00035",
                        "trialNum": 20,
                        "response": "definitely no",
                        "responseCoded": 3
                    },
                    {
                        "rt": 2163,
                        "swatch": "BI2A00014",
                        "trialNum": 21,
                        "response": "probably no",
                        "responseCoded": -2
                    },
                    {
                        "rt": 2190,
                        "swatch": "BI2A00021",
                        "trialNum": 22,
                        "response": "equally yes/no",
                        "responseCoded": 0
                    },
                    {
                        "rt": 3050,
                        "swatch": "BI2A00020",
                        "trialNum": 23,
                        "response": "probably no",
                        "responseCoded": -2
                    },
                    {
                        "rt": 2035,
                        "swatch": "BI2A00002",
                        "trialNum": 24,
                        "response": "maybe no",
                        "responseCoded": -1
                    },
                    {
                        "rt": 2413,
                        "swatch": "BI2A00025",
                        "trialNum": 25,
                        "response": "maybe no",
                        "responseCoded": -1
                    },
                    {
                        "rt": 1695,
                        "swatch": "BI2A00027",
                        "trialNum": 26,
                        "response": "maybe no",
                        "responseCoded": -1
                    },
                    {
                        "rt": 3225,
                        "swatch": "BI2A00032",
                        "trialNum": 27,
                        "response": "probably no",
                        "responseCoded": -2
                    },
                    {
                        "rt": 2009,
                        "swatch": "BI2A00030",
                        "trialNum": 28,
                        "response": "definitely no",
                        "responseCoded": 3
                    },
                    {
                        "rt": 2764,
                        "swatch": "BI2A00045",
                        "trialNum": 29,
                        "response": "probably yes",
                        "responseCoded": 2
                    },
                    {
                        "rt": 2757,
                        "swatch": "BI2A00040",
                        "trialNum": 30,
                        "response": "equally yes/no",
                        "responseCoded": 0
                    },
                    {
                        "rt": 2111,
                        "swatch": "BI2A00028",
                        "trialNum": 31,
                        "response": "equally yes/no",
                        "responseCoded": 0
                    },
                    {
                        "rt": 2121,
                        "swatch": "BI2A00018",
                        "trialNum": 32,
                        "response": "definitely no",
                        "responseCoded": 3
                    },
                    {
                        "rt": 3411,
                        "swatch": "BI2A00024",
                        "trialNum": 33,
                        "response": "maybe yes",
                        "responseCoded": 1
                    },
                    {
                        "rt": 3079,
                        "swatch": "BI2A00009",
                        "trialNum": 34,
                        "response": "maybe yes",
                        "responseCoded": 1
                    },
                    {
                        "rt": 3595,
                        "swatch": "BI2A00047",
                        "trialNum": 35,
                        "response": "definitely no",
                        "responseCoded": 3
                    },
                    {
                        "rt": 3901,
                        "swatch": "BI2A00037",
                        "trialNum": 36,
                        "response": "probably no",
                        "responseCoded": -2
                    },
                    {
                        "rt": 2420,
                        "swatch": "BI2A00017",
                        "trialNum": 37,
                        "response": "probably no",
                        "responseCoded": -2
                    },
                    {
                        "rt": 1866,
                        "swatch": "BI2A00004",
                        "trialNum": 38,
                        "response": "probably no",
                        "responseCoded": -2
                    },
                    {
                        "rt": 2815,
                        "swatch": "BI2A00041",
                        "trialNum": 39,
                        "response": "probably no",
                        "responseCoded": -2
                    },
                    {
                        "rt": 2641,
                        "swatch": "BI2A00043",
                        "trialNum": 40,
                        "response": "probably no",
                        "responseCoded": -2
                    },
                    {
                        "rt": 2317,
                        "swatch": "BI2A00007",
                        "trialNum": 41,
                        "response": "definitely no",
                        "responseCoded": 3
                    },
                    {
                        "rt": 2673,
                        "swatch": "BI2A00006",
                        "trialNum": 42,
                        "response": "maybe no",
                        "responseCoded": -1
                    },
                    {
                        "rt": 3613,
                        "swatch": "BI2A00029",
                        "trialNum": 43,
                        "response": "definitely yes",
                        "responseCoded": 3
                    },
                    {
                        "rt": 2985,
                        "swatch": "BI2A00038",
                        "trialNum": 44,
                        "response": "equally yes/no",
                        "responseCoded": 0
                    },
                    {
                        "rt": 2798,
                        "swatch": "BI2A00005",
                        "trialNum": 45,
                        "response": "definitely no",
                        "responseCoded": 3
                    },
                    {
                        "rt": 2074,
                        "swatch": "BI2A00048",
                        "trialNum": 46,
                        "response": "definitely no",
                        "responseCoded": 3
                    },
                    {
                        "rt": 3107,
                        "swatch": "BI2A00023",
                        "trialNum": 47,
                        "response": "maybe yes",
                        "responseCoded": 1
                    },
                    {
                        "rt": 3419,
                        "swatch": "BI2A00012",
                        "trialNum": 48,
                        "response": "definitely no",
                        "responseCoded": 3
                    }
                ],
                "gender": "female",
                "age": "32",
                "comments": "",
                "religion": [
                    "hinduism"
                ],
                "condition": "hungry",
                "fingerprintData": {
                    "ip": "123.255.250.92",
                    "screenHeight": 768,
                    "plugins": [
                        {
                            "description": "Enables Widevine licenses for playback of HTML audio/video content. (version: 1.4.6.758)",
                            "filename": "widevinecdmadapter.dll"
                        },
                        {
                            "description": "Shockwave Flash 16.0 r0",
                            "filename": "pepflashplayer.dll"
                        },
                        {
                            "description": "This plugin allows you to securely access other computers that have been shared with you. To use this plugin you must first install the <a href=\"https://chrome.google.com/remotedesktop\">Chrome Remote Desktop</a> webapp.",
                            "filename": "internal-remoting-viewer"
                        },
                        {
                            "description": "",
                            "filename": "internal-nacl-plugin"
                        },
                        {
                            "description": "",
                            "filename": "pdf.dll"
                        },
                        {
                            "description": "Google Update",
                            "filename": "npGoogleUpdate3.dll"
                        },
                        {
                            "description": "NPRuntime Script Plug-in Library for Java(TM) Deploy",
                            "filename": "npDeployJava1.dll"
                        },
                        {
                            "description": "Next Generation Java Plug-in 10.45.2 for Mozilla browsers",
                            "filename": "npjp2.dll"
                        },
                        {
                            "description": "Office Live Update v1.5",
                            "filename": "npOLW.dll"
                        },
                        {
                            "description": "NPWLPG",
                            "filename": "NPWLPG.dll"
                        },
                        {
                            "description": "Unity Player 4.5.1f3",
                            "filename": "npUnity3D32.dll"
                        },
                        {
                            "description": "Adobe Shockwave for Director Netscape plug-in, version 11.5.9.620",
                            "filename": "np32dsw.dll"
                        }
                    ],
                    "timezone": -330,
                    "colorDepth": 24,
                    "screenWidth": 1366,
                    "geo": {
                        "city": "",
                        "region_code": "",
                        "region_name": "",
                        "ip": "123.255.250.92",
                        "time_zone": "Asia/Kolkata",
                        "longitude": 77,
                        "metro_code": 0,
                        "latitude": 20,
                        "country_code": "IN",
                        "country_name": "India",
                        "zip_code": ""
                    },
                    "browser": "Mozilla/5.0 (Windows NT 6.1; WOW64) AppleWebKit/537.36 (KHTML, like Gecko) Chrome/40.0.2214.115 Safari/537.36"
                },
                "ethnicity": [
                    "asian_southAsian"
                ]
            }
        }
    },
    "AcceptTime": "2015-03-03T09:06:20Z",
    "HITId": "3T8DUCXY0NFS8HJNPUVH4PK7OP69T8",
    "Assignment": "",
    "AssignmentStatus": "Submitted",
    "SubmitTime": "2015-03-03T09:37:59Z"
}