{
    "AutoApprovalTime": "2015-03-03T09:37:45Z",
    "AssignmentId": "3AUQQEL7U62RBZXSKVH41G3IVJI0V0",
    "WorkerId": "A2JLU8XYHVY2ZP",
    "answers": {
        "data": {
            "trials": [],
            "condition": "feelings",
            "allData": {
                "education": "college_bachDegree",
                "englishNative": "yes_multiple",
                "trialData": [
                    {
                        "rt": 18247,
                        "swatch": "BI2A00005",
                        "trialNum": 1,
                        "response": "probably yes",
                        "responseCoded": 2
                    },
                    {
                        "rt": 4111,
                        "swatch": "BI2A00030",
                        "trialNum": 2,
                        "response": "definitely no",
                        "responseCoded": 3
                    },
                    {
                        "rt": 2615,
                        "swatch": "BI2A00022",
                        "trialNum": 3,
                        "response": "definitely no",
                        "responseCoded": 3
                    },
                    {
                        "rt": 2463,
                        "swatch": "BI2A00010",
                        "trialNum": 4,
                        "response": "equally yes/no",
                        "responseCoded": 0
                    },
                    {
                        "rt": 2406,
                        "swatch": "BI2A00048",
                        "trialNum": 5,
                        "response": "maybe no",
                        "responseCoded": -1
                    },
                    {
                        "rt": 2022,
                        "swatch": "BI2A00028",
                        "trialNum": 6,
                        "response": "maybe yes",
                        "responseCoded": 1
                    },
                    {
                        "rt": 2789,
                        "swatch": "BI2A00036",
                        "trialNum": 7,
                        "response": "maybe yes",
                        "responseCoded": 1
                    },
                    {
                        "rt": 2372,
                        "swatch": "BI2A00007",
                        "trialNum": 8,
                        "response": "probably yes",
                        "responseCoded": 2
                    },
                    {
                        "rt": 3182,
                        "swatch": "BI2A00026",
                        "trialNum": 9,
                        "response": "maybe no",
                        "responseCoded": -1
                    },
                    {
                        "rt": 1632,
                        "swatch": "BI2A00023",
                        "trialNum": 10,
                        "response": "maybe no",
                        "responseCoded": -1
                    },
                    {
                        "rt": 2360,
                        "swatch": "BI2A00046",
                        "trialNum": 11,
                        "response": "equally yes/no",
                        "responseCoded": 0
                    },
                    {
                        "rt": 1799,
                        "swatch": "BI2A00027",
                        "trialNum": 12,
                        "response": "probably no",
                        "responseCoded": -2
                    },
                    {
                        "rt": 1903,
                        "swatch": "BI2A00014",
                        "trialNum": 13,
                        "response": "maybe yes",
                        "responseCoded": 1
                    },
                    {
                        "rt": 1417,
                        "swatch": "BI2A00019",
                        "trialNum": 14,
                        "response": "probably yes",
                        "responseCoded": 2
                    },
                    {
                        "rt": 2863,
                        "swatch": "BI2A00018",
                        "trialNum": 15,
                        "response": "definitely no",
                        "responseCoded": 3
                    },
                    {
                        "rt": 2559,
                        "swatch": "BI2A00043",
                        "trialNum": 16,
                        "response": "maybe yes",
                        "responseCoded": 1
                    },
                    {
                        "rt": 2024,
                        "swatch": "BI2A00004",
                        "trialNum": 17,
                        "response": "maybe yes",
                        "responseCoded": 1
                    },
                    {
                        "rt": 1359,
                        "swatch": "BI2A00003",
                        "trialNum": 18,
                        "response": "probably yes",
                        "responseCoded": 2
                    },
                    {
                        "rt": 2798,
                        "swatch": "BI2A00029",
                        "trialNum": 19,
                        "response": "maybe no",
                        "responseCoded": -1
                    },
                    {
                        "rt": 1462,
                        "swatch": "BI2A00008",
                        "trialNum": 20,
                        "response": "definitely yes",
                        "responseCoded": 3
                    },
                    {
                        "rt": 1733,
                        "swatch": "BI2A00045",
                        "trialNum": 21,
                        "response": "maybe no",
                        "responseCoded": -1
                    },
                    {
                        "rt": 1616,
                        "swatch": "BI2A00001",
                        "trialNum": 22,
                        "response": "maybe yes",
                        "responseCoded": 1
                    },
                    {
                        "rt": 1296,
                        "swatch": "BI2A00034",
                        "trialNum": 23,
                        "response": "probably yes",
                        "responseCoded": 2
                    },
                    {
                        "rt": 1663,
                        "swatch": "BI2A00025",
                        "trialNum": 24,
                        "response": "maybe no",
                        "responseCoded": -1
                    },
                    {
                        "rt": 1865,
                        "swatch": "BI2A00015",
                        "trialNum": 25,
                        "response": "probably yes",
                        "responseCoded": 2
                    },
                    {
                        "rt": 2695,
                        "swatch": "BI2A00011",
                        "trialNum": 26,
                        "response": "definitely yes",
                        "responseCoded": 3
                    },
                    {
                        "rt": 1333,
                        "swatch": "BI2A00006",
                        "trialNum": 27,
                        "response": "probably yes",
                        "responseCoded": 2
                    },
                    {
                        "rt": 1598,
                        "swatch": "BI2A00012",
                        "trialNum": 28,
                        "response": "maybe yes",
                        "responseCoded": 1
                    },
                    {
                        "rt": 1353,
                        "swatch": "BI2A00037",
                        "trialNum": 29,
                        "response": "probably yes",
                        "responseCoded": 2
                    },
                    {
                        "rt": 1613,
                        "swatch": "BI2A00013",
                        "trialNum": 30,
                        "response": "probably yes",
                        "responseCoded": 2
                    },
                    {
                        "rt": 1964,
                        "swatch": "BI2A00017",
                        "trialNum": 31,
                        "response": "definitely no",
                        "responseCoded": 3
                    },
                    {
                        "rt": 1614,
                        "swatch": "BI2A00038",
                        "trialNum": 32,
                        "response": "probably no",
                        "responseCoded": -2
                    },
                    {
                        "rt": 1880,
                        "swatch": "BI2A00016",
                        "trialNum": 33,
                        "response": "maybe yes",
                        "responseCoded": 1
                    },
                    {
                        "rt": 1432,
                        "swatch": "BI2A00044",
                        "trialNum": 34,
                        "response": "definitely no",
                        "responseCoded": 3
                    },
                    {
                        "rt": 1167,
                        "swatch": "BI2A00033",
                        "trialNum": 35,
                        "response": "definitely no",
                        "responseCoded": 3
                    },
                    {
                        "rt": 2072,
                        "swatch": "BI2A00042",
                        "trialNum": 36,
                        "response": "definitely no",
                        "responseCoded": 3
                    },
                    {
                        "rt": 1240,
                        "swatch": "BI2A00032",
                        "trialNum": 37,
                        "response": "definitely no",
                        "responseCoded": 3
                    },
                    {
                        "rt": 1480,
                        "swatch": "BI2A00035",
                        "trialNum": 38,
                        "response": "probably no",
                        "responseCoded": -2
                    },
                    {
                        "rt": 1862,
                        "swatch": "BI2A00002",
                        "trialNum": 39,
                        "response": "probably yes",
                        "responseCoded": 2
                    },
                    {
                        "rt": 2360,
                        "swatch": "BI2A00047",
                        "trialNum": 40,
                        "response": "definitely yes",
                        "responseCoded": 3
                    },
                    {
                        "rt": 1637,
                        "swatch": "BI2A00009",
                        "trialNum": 41,
                        "response": "definitely yes",
                        "responseCoded": 3
                    },
                    {
                        "rt": 2197,
                        "swatch": "BI2A00020",
                        "trialNum": 42,
                        "response": "probably yes",
                        "responseCoded": 2
                    },
                    {
                        "rt": 1734,
                        "swatch": "BI2A00041",
                        "trialNum": 43,
                        "response": "probably no",
                        "responseCoded": -2
                    },
                    {
                        "rt": 1748,
                        "swatch": "BI2A00024",
                        "trialNum": 44,
                        "response": "equally yes/no",
                        "responseCoded": 0
                    },
                    {
                        "rt": 1988,
                        "swatch": "BI2A00031",
                        "trialNum": 45,
                        "response": "maybe no",
                        "responseCoded": -1
                    },
                    {
                        "rt": 3111,
                        "swatch": "BI2A00039",
                        "trialNum": 46,
                        "response": "definitely no",
                        "responseCoded": 3
                    },
                    {
                        "rt": 4456,
                        "swatch": "BI2A00021",
                        "trialNum": 47,
                        "response": "definitely no",
                        "responseCoded": 3
                    },
                    {
                        "rt": 2857,
                        "swatch": "BI2A00040",
                        "trialNum": 48,
                        "response": "maybe yes",
                        "responseCoded": 1
                    }
                ],
                "gender": "male",
                "age": "29",
                "comments": "It is very easy and nice survey. I am very interested to do more job.",
                "religion": [
                    "christianity_catholic"
                ],
                "condition": "feelings",
                "fingerprintData": {
                    "ip": "117.221.208.186",
                    "screenHeight": 614,
                    "plugins": [
                        {
                            "description": "Adobe PDF Plug-In For Firefox and Netscape 10.1.12",
                            "filename": "nppdf32.dll"
                        },
                        {
                            "description": "Adobe PDF Plug-In For Firefox and Netscape 10.1.12",
                            "filename": "nppdf32.dll"
                        },
                        {
                            "description": "Google Update",
                            "filename": "npGoogleUpdate3.dll"
                        },
                        {
                            "description": "Inquisit Mozilla Plugin 4.0.7.0",
                            "filename": "npInquisit.dll"
                        },
                        {
                            "description": "Nokia Suite Enabler Plugin",
                            "filename": "npNokiaSuiteEnabler.dll"
                        },
                        {
                            "description": "Shockwave Flash 16.0 r0",
                            "filename": "NPSWF32_16_0_0_305.dll"
                        },
                        {
                            "description": "5.1.30514.0",
                            "filename": "npctrl.dll"
                        },
                        {
                            "description": "Unity Player 4.6.0f3",
                            "filename": "npUnity3D32.dll"
                        },
                        {
                            "description": "VLC media player Web Plugin 2.0.2",
                            "filename": "npvlc.dll"
                        },
                        {
                            "description": "Yahoo Application State Plugin version 1.0.0.7",
                            "filename": "npYState.dll"
                        }
                    ],
                    "timezone": -330,
                    "colorDepth": 24,
                    "screenWidth": 1093,
                    "geo": {
                        "city": "Bangalore",
                        "region_code": "KA",
                        "region_name": "Karnataka",
                        "ip": "117.221.208.186",
                        "time_zone": "Asia/Kolkata",
                        "longitude": 77.583,
                        "metro_code": 0,
                        "latitude": 12.983,
                        "country_code": "IN",
                        "country_name": "India",
                        "zip_code": ""
                    },
                    "browser": "Mozilla/5.0 (Windows NT 6.1; rv:36.0) Gecko/20100101 Firefox/36.0"
                },
                "ethnicity": [
                    "asian_southAsian"
                ]
            }
        }
    },
    "AcceptTime": "2015-03-03T09:11:36Z",
    "HITId": "3T8DUCXY0NFS8HJNPUVH4PK7OP69T8",
    "Assignment": "",
    "AssignmentStatus": "Submitted",
    "SubmitTime": "2015-03-03T09:32:45Z"
}