{
    "AutoApprovalTime": "2015-03-03T09:16:19Z",
    "AssignmentId": "3B837J3LDP5ZJ10NKDVEAPKY55NSRL",
    "WorkerId": "A2OAZPREKF6PQR",
    "answers": {
        "data": {
            "trials": [],
            "condition": "sense",
            "allData": {
                "education": "college_bachDegree",
                "englishNative": "no",
                "trialData": [
                    {
                        "rt": 20164,
                        "swatch": "BI2A00009",
                        "trialNum": 1,
                        "response": "definitely yes",
                        "responseCoded": 3
                    },
                    {
                        "rt": 2043,
                        "swatch": "BI2A00014",
                        "trialNum": 2,
                        "response": "equally yes/no",
                        "responseCoded": 0
                    },
                    {
                        "rt": 1297,
                        "swatch": "BI2A00002",
                        "trialNum": 3,
                        "response": "maybe yes",
                        "responseCoded": 1
                    },
                    {
                        "rt": 1372,
                        "swatch": "BI2A00008",
                        "trialNum": 4,
                        "response": "probably no",
                        "responseCoded": -2
                    },
                    {
                        "rt": 1317,
                        "swatch": "BI2A00032",
                        "trialNum": 5,
                        "response": "equally yes/no",
                        "responseCoded": 0
                    },
                    {
                        "rt": 1261,
                        "swatch": "BI2A00017",
                        "trialNum": 6,
                        "response": "equally yes/no",
                        "responseCoded": 0
                    },
                    {
                        "rt": 1602,
                        "swatch": "BI2A00023",
                        "trialNum": 7,
                        "response": "probably no",
                        "responseCoded": -2
                    },
                    {
                        "rt": 1457,
                        "swatch": "BI2A00016",
                        "trialNum": 8,
                        "response": "maybe no",
                        "responseCoded": -1
                    },
                    {
                        "rt": 1754,
                        "swatch": "BI2A00028",
                        "trialNum": 9,
                        "response": "equally yes/no",
                        "responseCoded": 0
                    },
                    {
                        "rt": 1381,
                        "swatch": "BI2A00045",
                        "trialNum": 10,
                        "response": "probably yes",
                        "responseCoded": 2
                    },
                    {
                        "rt": 1446,
                        "swatch": "BI2A00019",
                        "trialNum": 11,
                        "response": "probably no",
                        "responseCoded": -2
                    },
                    {
                        "rt": 1398,
                        "swatch": "BI2A00048",
                        "trialNum": 12,
                        "response": "maybe yes",
                        "responseCoded": 1
                    },
                    {
                        "rt": 1486,
                        "swatch": "BI2A00043",
                        "trialNum": 13,
                        "response": "definitely yes",
                        "responseCoded": 3
                    },
                    {
                        "rt": 1557,
                        "swatch": "BI2A00044",
                        "trialNum": 14,
                        "response": "probably yes",
                        "responseCoded": 2
                    },
                    {
                        "rt": 1386,
                        "swatch": "BI2A00011",
                        "trialNum": 15,
                        "response": "maybe no",
                        "responseCoded": -1
                    },
                    {
                        "rt": 1504,
                        "swatch": "BI2A00015",
                        "trialNum": 16,
                        "response": "equally yes/no",
                        "responseCoded": 0
                    },
                    {
                        "rt": 1830,
                        "swatch": "BI2A00038",
                        "trialNum": 17,
                        "response": "probably yes",
                        "responseCoded": 2
                    },
                    {
                        "rt": 1293,
                        "swatch": "BI2A00021",
                        "trialNum": 18,
                        "response": "maybe yes",
                        "responseCoded": 1
                    },
                    {
                        "rt": 1552,
                        "swatch": "BI2A00020",
                        "trialNum": 19,
                        "response": "probably no",
                        "responseCoded": -2
                    },
                    {
                        "rt": 1848,
                        "swatch": "BI2A00012",
                        "trialNum": 20,
                        "response": "probably no",
                        "responseCoded": -2
                    },
                    {
                        "rt": 1818,
                        "swatch": "BI2A00026",
                        "trialNum": 21,
                        "response": "maybe no",
                        "responseCoded": -1
                    },
                    {
                        "rt": 1677,
                        "swatch": "BI2A00025",
                        "trialNum": 22,
                        "response": "probably no",
                        "responseCoded": -2
                    },
                    {
                        "rt": 1373,
                        "swatch": "BI2A00047",
                        "trialNum": 23,
                        "response": "maybe yes",
                        "responseCoded": 1
                    },
                    {
                        "rt": 1629,
                        "swatch": "BI2A00037",
                        "trialNum": 24,
                        "response": "equally yes/no",
                        "responseCoded": 0
                    },
                    {
                        "rt": 1436,
                        "swatch": "BI2A00030",
                        "trialNum": 25,
                        "response": "maybe no",
                        "responseCoded": -1
                    },
                    {
                        "rt": 1701,
                        "swatch": "BI2A00036",
                        "trialNum": 26,
                        "response": "probably no",
                        "responseCoded": -2
                    },
                    {
                        "rt": 3089,
                        "swatch": "BI2A00027",
                        "trialNum": 27,
                        "response": "probably yes",
                        "responseCoded": 2
                    },
                    {
                        "rt": 2762,
                        "swatch": "BI2A00004",
                        "trialNum": 28,
                        "response": "maybe no",
                        "responseCoded": -1
                    },
                    {
                        "rt": 702,
                        "swatch": "BI2A00046",
                        "trialNum": 29,
                        "response": "maybe no",
                        "responseCoded": -1
                    },
                    {
                        "rt": 6427,
                        "swatch": "BI2A00001",
                        "trialNum": 30,
                        "response": "probably no",
                        "responseCoded": -2
                    },
                    {
                        "rt": 2096,
                        "swatch": "BI2A00003",
                        "trialNum": 31,
                        "response": "definitely no",
                        "responseCoded": 3
                    },
                    {
                        "rt": 1726,
                        "swatch": "BI2A00010",
                        "trialNum": 32,
                        "response": "equally yes/no",
                        "responseCoded": 0
                    },
                    {
                        "rt": 2101,
                        "swatch": "BI2A00005",
                        "trialNum": 33,
                        "response": "definitely no",
                        "responseCoded": 3
                    },
                    {
                        "rt": 1783,
                        "swatch": "BI2A00040",
                        "trialNum": 34,
                        "response": "maybe yes",
                        "responseCoded": 1
                    },
                    {
                        "rt": 1783,
                        "swatch": "BI2A00041",
                        "trialNum": 35,
                        "response": "probably yes",
                        "responseCoded": 2
                    },
                    {
                        "rt": 1765,
                        "swatch": "BI2A00033",
                        "trialNum": 36,
                        "response": "maybe no",
                        "responseCoded": -1
                    },
                    {
                        "rt": 1686,
                        "swatch": "BI2A00042",
                        "trialNum": 37,
                        "response": "probably yes",
                        "responseCoded": 2
                    },
                    {
                        "rt": 2814,
                        "swatch": "BI2A00007",
                        "trialNum": 38,
                        "response": "maybe yes",
                        "responseCoded": 1
                    },
                    {
                        "rt": 1494,
                        "swatch": "BI2A00035",
                        "trialNum": 39,
                        "response": "maybe yes",
                        "responseCoded": 1
                    },
                    {
                        "rt": 1862,
                        "swatch": "BI2A00024",
                        "trialNum": 40,
                        "response": "equally yes/no",
                        "responseCoded": 0
                    },
                    {
                        "rt": 2608,
                        "swatch": "BI2A00034",
                        "trialNum": 41,
                        "response": "maybe yes",
                        "responseCoded": 1
                    },
                    {
                        "rt": 5230,
                        "swatch": "BI2A00029",
                        "trialNum": 42,
                        "response": "probably yes",
                        "responseCoded": 2
                    },
                    {
                        "rt": 2496,
                        "swatch": "BI2A00018",
                        "trialNum": 43,
                        "response": "probably yes",
                        "responseCoded": 2
                    },
                    {
                        "rt": 2059,
                        "swatch": "BI2A00006",
                        "trialNum": 44,
                        "response": "probably no",
                        "responseCoded": -2
                    },
                    {
                        "rt": 2398,
                        "swatch": "BI2A00031",
                        "trialNum": 45,
                        "response": "maybe yes",
                        "responseCoded": 1
                    },
                    {
                        "rt": 2076,
                        "swatch": "BI2A00013",
                        "trialNum": 46,
                        "response": "definitely no",
                        "responseCoded": 3
                    },
                    {
                        "rt": 2390,
                        "swatch": "BI2A00039",
                        "trialNum": 47,
                        "response": "equally yes/no",
                        "responseCoded": 0
                    },
                    {
                        "rt": 1882,
                        "swatch": "BI2A00022",
                        "trialNum": 48,
                        "response": "maybe yes",
                        "responseCoded": 1
                    }
                ],
                "gender": "female",
                "age": "25",
                "comments": "no",
                "religion": [
                    "hinduism"
                ],
                "condition": "sense",
                "fingerprintData": {
                    "ip": "183.83.232.244",
                    "screenHeight": 768,
                    "plugins": [
                        {
                            "description": "Enables Widevine licenses for playback of HTML audio/video content. (version: 1.4.6.758)",
                            "filename": "widevinecdmadapter.dll"
                        },
                        {
                            "description": "Shockwave Flash 16.0 r0",
                            "filename": "pepflashplayer.dll"
                        },
                        {
                            "description": "This plugin allows you to securely access other computers that have been shared with you. To use this plugin you must first install the <a href=\"https://chrome.google.com/remotedesktop\">Chrome Remote Desktop</a> webapp.",
                            "filename": "internal-remoting-viewer"
                        },
                        {
                            "description": "",
                            "filename": "internal-nacl-plugin"
                        },
                        {
                            "description": "",
                            "filename": "pdf.dll"
                        },
                        {
                            "description": "NPRuntime Script Plug-in Library for Java(TM) Deploy",
                            "filename": "npDeployJava1.dll"
                        },
                        {
                            "description": "Next Generation Java Plug-in 11.31.2 for Mozilla browsers",
                            "filename": "npjp2.dll"
                        },
                        {
                            "description": "VLC media player Web Plugin 2.0.2",
                            "filename": "npvlc.dll"
                        },
                        {
                            "description": "Google Update",
                            "filename": "npGoogleUpdate3.dll"
                        },
                        {
                            "description": "Version 5.40.2.0",
                            "filename": "npgoogletalk.dll"
                        },
                        {
                            "description": "Version 5.40.2.0",
                            "filename": "npo1d.dll"
                        },
                        {
                            "description": "Shockwave Flash 16.0 r0",
                            "filename": "NPSWF32_16_0_0_305.dll"
                        }
                    ],
                    "timezone": -330,
                    "colorDepth": 24,
                    "screenWidth": 1366,
                    "geo": {
                        "city": "Hyderabad",
                        "region_code": "",
                        "region_name": "Telangana",
                        "ip": "183.83.232.244",
                        "time_zone": "Asia/Kolkata",
                        "longitude": 78.474,
                        "metro_code": 0,
                        "latitude": 17.375,
                        "country_code": "IN",
                        "country_name": "India",
                        "zip_code": ""
                    },
                    "browser": "Mozilla/5.0 (Windows NT 10.0; WOW64) AppleWebKit/537.36 (KHTML, like Gecko) Chrome/40.0.2214.115 Safari/537.36"
                },
                "ethnicity": [
                    "asian_southAsian"
                ]
            }
        }
    },
    "AcceptTime": "2015-03-03T09:06:02Z",
    "HITId": "3T8DUCXY0NFS8HJNPUVH4PK7OP69T8",
    "Assignment": "",
    "AssignmentStatus": "Submitted",
    "SubmitTime": "2015-03-03T09:11:19Z"
}