{
    "AutoApprovalTime": "2015-03-03T09:50:37Z",
    "AssignmentId": "3BC8WZX3V45NIM0A5OV9KFF2J35RRX",
    "WorkerId": "A27E8GEOUTNR35",
    "answers": {
        "data": {
            "trials": [],
            "condition": "sense",
            "allData": {
                "education": "grad_some",
                "englishNative": "yes_multiple",
                "trialData": [
                    {
                        "rt": 19451,
                        "swatch": "BI2A00020",
                        "trialNum": 1,
                        "response": "maybe yes",
                        "responseCoded": 1
                    },
                    {
                        "rt": 8990,
                        "swatch": "BI2A00019",
                        "trialNum": 2,
                        "response": "maybe yes",
                        "responseCoded": 1
                    },
                    {
                        "rt": 4945,
                        "swatch": "BI2A00012",
                        "trialNum": 3,
                        "response": "probably no",
                        "responseCoded": -2
                    },
                    {
                        "rt": 5846,
                        "swatch": "BI2A00016",
                        "trialNum": 4,
                        "response": "probably no",
                        "responseCoded": -2
                    },
                    {
                        "rt": 4144,
                        "swatch": "BI2A00011",
                        "trialNum": 5,
                        "response": "definitely yes",
                        "responseCoded": 3
                    },
                    {
                        "rt": 4559,
                        "swatch": "BI2A00025",
                        "trialNum": 6,
                        "response": "probably no",
                        "responseCoded": -2
                    },
                    {
                        "rt": 6217,
                        "swatch": "BI2A00018",
                        "trialNum": 7,
                        "response": "probably no",
                        "responseCoded": -2
                    },
                    {
                        "rt": 3249,
                        "swatch": "BI2A00026",
                        "trialNum": 8,
                        "response": "equally yes/no",
                        "responseCoded": 0
                    },
                    {
                        "rt": 2955,
                        "swatch": "BI2A00008",
                        "trialNum": 9,
                        "response": "maybe yes",
                        "responseCoded": 1
                    },
                    {
                        "rt": 2480,
                        "swatch": "BI2A00002",
                        "trialNum": 10,
                        "response": "maybe yes",
                        "responseCoded": 1
                    },
                    {
                        "rt": 3989,
                        "swatch": "BI2A00033",
                        "trialNum": 11,
                        "response": "maybe no",
                        "responseCoded": -1
                    },
                    {
                        "rt": 4266,
                        "swatch": "BI2A00044",
                        "trialNum": 12,
                        "response": "definitely yes",
                        "responseCoded": 3
                    },
                    {
                        "rt": 4906,
                        "swatch": "BI2A00005",
                        "trialNum": 13,
                        "response": "definitely no",
                        "responseCoded": 3
                    },
                    {
                        "rt": 4706,
                        "swatch": "BI2A00042",
                        "trialNum": 14,
                        "response": "maybe no",
                        "responseCoded": -1
                    },
                    {
                        "rt": 9508,
                        "swatch": "BI2A00032",
                        "trialNum": 15,
                        "response": "maybe no",
                        "responseCoded": -1
                    },
                    {
                        "rt": 3341,
                        "swatch": "BI2A00023",
                        "trialNum": 16,
                        "response": "maybe no",
                        "responseCoded": -1
                    },
                    {
                        "rt": 5129,
                        "swatch": "BI2A00024",
                        "trialNum": 17,
                        "response": "probably yes",
                        "responseCoded": 2
                    },
                    {
                        "rt": 3164,
                        "swatch": "BI2A00007",
                        "trialNum": 18,
                        "response": "probably yes",
                        "responseCoded": 2
                    },
                    {
                        "rt": 4267,
                        "swatch": "BI2A00029",
                        "trialNum": 19,
                        "response": "probably no",
                        "responseCoded": -2
                    },
                    {
                        "rt": 3241,
                        "swatch": "BI2A00047",
                        "trialNum": 20,
                        "response": "probably no",
                        "responseCoded": -2
                    },
                    {
                        "rt": 2523,
                        "swatch": "BI2A00048",
                        "trialNum": 21,
                        "response": "probably no",
                        "responseCoded": -2
                    },
                    {
                        "rt": 3296,
                        "swatch": "BI2A00036",
                        "trialNum": 22,
                        "response": "probably no",
                        "responseCoded": -2
                    },
                    {
                        "rt": 3650,
                        "swatch": "BI2A00003",
                        "trialNum": 23,
                        "response": "maybe yes",
                        "responseCoded": 1
                    },
                    {
                        "rt": 3049,
                        "swatch": "BI2A00006",
                        "trialNum": 24,
                        "response": "equally yes/no",
                        "responseCoded": 0
                    },
                    {
                        "rt": 2322,
                        "swatch": "BI2A00045",
                        "trialNum": 25,
                        "response": "definitely no",
                        "responseCoded": 3
                    },
                    {
                        "rt": 3416,
                        "swatch": "BI2A00009",
                        "trialNum": 26,
                        "response": "probably yes",
                        "responseCoded": 2
                    },
                    {
                        "rt": 4600,
                        "swatch": "BI2A00028",
                        "trialNum": 27,
                        "response": "probably no",
                        "responseCoded": -2
                    },
                    {
                        "rt": 3535,
                        "swatch": "BI2A00027",
                        "trialNum": 28,
                        "response": "definitely no",
                        "responseCoded": 3
                    },
                    {
                        "rt": 6595,
                        "swatch": "BI2A00037",
                        "trialNum": 29,
                        "response": "definitely no",
                        "responseCoded": 3
                    },
                    {
                        "rt": 3208,
                        "swatch": "BI2A00030",
                        "trialNum": 30,
                        "response": "definitely no",
                        "responseCoded": 3
                    },
                    {
                        "rt": 3269,
                        "swatch": "BI2A00004",
                        "trialNum": 31,
                        "response": "equally yes/no",
                        "responseCoded": 0
                    },
                    {
                        "rt": 4250,
                        "swatch": "BI2A00031",
                        "trialNum": 32,
                        "response": "probably no",
                        "responseCoded": -2
                    },
                    {
                        "rt": 2635,
                        "swatch": "BI2A00046",
                        "trialNum": 33,
                        "response": "definitely no",
                        "responseCoded": 3
                    },
                    {
                        "rt": 3625,
                        "swatch": "BI2A00021",
                        "trialNum": 34,
                        "response": "probably no",
                        "responseCoded": -2
                    },
                    {
                        "rt": 4322,
                        "swatch": "BI2A00034",
                        "trialNum": 35,
                        "response": "probably no",
                        "responseCoded": -2
                    },
                    {
                        "rt": 3218,
                        "swatch": "BI2A00038",
                        "trialNum": 36,
                        "response": "probably no",
                        "responseCoded": -2
                    },
                    {
                        "rt": 3136,
                        "swatch": "BI2A00040",
                        "trialNum": 37,
                        "response": "probably no",
                        "responseCoded": -2
                    },
                    {
                        "rt": 4277,
                        "swatch": "BI2A00015",
                        "trialNum": 38,
                        "response": "maybe yes",
                        "responseCoded": 1
                    },
                    {
                        "rt": 3695,
                        "swatch": "BI2A00043",
                        "trialNum": 39,
                        "response": "equally yes/no",
                        "responseCoded": 0
                    },
                    {
                        "rt": 4378,
                        "swatch": "BI2A00022",
                        "trialNum": 40,
                        "response": "equally yes/no",
                        "responseCoded": 0
                    },
                    {
                        "rt": 3424,
                        "swatch": "BI2A00010",
                        "trialNum": 41,
                        "response": "maybe yes",
                        "responseCoded": 1
                    },
                    {
                        "rt": 3033,
                        "swatch": "BI2A00001",
                        "trialNum": 42,
                        "response": "equally yes/no",
                        "responseCoded": 0
                    },
                    {
                        "rt": 3122,
                        "swatch": "BI2A00039",
                        "trialNum": 43,
                        "response": "definitely no",
                        "responseCoded": 3
                    },
                    {
                        "rt": 3505,
                        "swatch": "BI2A00013",
                        "trialNum": 44,
                        "response": "maybe yes",
                        "responseCoded": 1
                    },
                    {
                        "rt": 2873,
                        "swatch": "BI2A00014",
                        "trialNum": 45,
                        "response": "equally yes/no",
                        "responseCoded": 0
                    },
                    {
                        "rt": 4401,
                        "swatch": "BI2A00017",
                        "trialNum": 46,
                        "response": "probably no",
                        "responseCoded": -2
                    },
                    {
                        "rt": 3160,
                        "swatch": "BI2A00035",
                        "trialNum": 47,
                        "response": "definitely no",
                        "responseCoded": 3
                    },
                    {
                        "rt": 5694,
                        "swatch": "BI2A00041",
                        "trialNum": 48,
                        "response": "maybe no",
                        "responseCoded": -1
                    }
                ],
                "gender": "male",
                "age": "29",
                "comments": "NA",
                "religion": [
                    "none"
                ],
                "condition": "sense",
                "fingerprintData": {
                    "ip": "65.174.226.30",
                    "screenHeight": 768,
                    "plugins": [
                        {
                            "description": "Enables Widevine licenses for playback of HTML audio/video content. (version: 1.4.6.703)",
                            "filename": "widevinecdmadapter.dll"
                        },
                        {
                            "description": "Shockwave Flash 16.0 r0",
                            "filename": "pepflashplayer.dll"
                        },
                        {
                            "description": "This plugin allows you to securely access other computers that have been shared with you. To use this plugin you must first install the <a href=\"https://chrome.google.com/remotedesktop\">Chrome Remote Desktop</a> webapp.",
                            "filename": "internal-remoting-viewer"
                        },
                        {
                            "description": "",
                            "filename": "internal-nacl-plugin"
                        },
                        {
                            "description": "",
                            "filename": "pdf.dll"
                        },
                        {
                            "description": "Google Update",
                            "filename": "npGoogleUpdate3.dll"
                        },
                        {
                            "description": "NPRuntime Script Plug-in Library for Java(TM) Deploy",
                            "filename": "npDeployJava1.dll"
                        },
                        {
                            "description": "Next Generation Java Plug-in 11.25.2 for Mozilla browsers",
                            "filename": "npjp2.dll"
                        }
                    ],
                    "timezone": 360,
                    "colorDepth": 24,
                    "screenWidth": 1364,
                    "geo": {
                        "city": "",
                        "region_code": "",
                        "region_name": "",
                        "ip": "65.174.226.30",
                        "time_zone": "",
                        "longitude": -97,
                        "metro_code": 0,
                        "latitude": 38,
                        "country_code": "US",
                        "country_name": "United States",
                        "zip_code": ""
                    },
                    "browser": "Mozilla/5.0 (Windows NT 6.1) AppleWebKit/537.36 (KHTML, like Gecko) Chrome/39.0.2171.95 Safari/537.36"
                },
                "ethnicity": [
                    "asian_southAsian"
                ]
            }
        }
    },
    "AcceptTime": "2015-03-03T09:41:11Z",
    "HITId": "3T8DUCXY0NFS8HJNPUVH4PK7OP69T8",
    "Assignment": "",
    "AssignmentStatus": "Submitted",
    "SubmitTime": "2015-03-03T09:45:37Z"
}