{
    "AutoApprovalTime": "2015-03-03T09:25:48Z",
    "AssignmentId": "3BDCF01OGY3LCPHJEZQ76ZZ0GYUYLF",
    "WorkerId": "A5K0NBHABI6O5",
    "answers": {
        "data": {
            "trials": [],
            "condition": "feelings",
            "allData": {
                "education": "grad_degree",
                "englishNative": "no",
                "trialData": [
                    {
                        "rt": 1358,
                        "swatch": "BI2A00028",
                        "trialNum": 1,
                        "response": "probably yes",
                        "responseCoded": 2
                    },
                    {
                        "rt": 1507,
                        "swatch": "BI2A00018",
                        "trialNum": 2,
                        "response": "probably yes",
                        "responseCoded": 2
                    },
                    {
                        "rt": 1643,
                        "swatch": "BI2A00008",
                        "trialNum": 3,
                        "response": "maybe no",
                        "responseCoded": -1
                    },
                    {
                        "rt": 2167,
                        "swatch": "BI2A00021",
                        "trialNum": 4,
                        "response": "maybe yes",
                        "responseCoded": 1
                    },
                    {
                        "rt": 1275,
                        "swatch": "BI2A00046",
                        "trialNum": 5,
                        "response": "maybe yes",
                        "responseCoded": 1
                    },
                    {
                        "rt": 1509,
                        "swatch": "BI2A00048",
                        "trialNum": 6,
                        "response": "maybe no",
                        "responseCoded": -1
                    },
                    {
                        "rt": 1213,
                        "swatch": "BI2A00012",
                        "trialNum": 7,
                        "response": "probably no",
                        "responseCoded": -2
                    },
                    {
                        "rt": 1252,
                        "swatch": "BI2A00007",
                        "trialNum": 8,
                        "response": "maybe no",
                        "responseCoded": -1
                    },
                    {
                        "rt": 1243,
                        "swatch": "BI2A00034",
                        "trialNum": 9,
                        "response": "definitely yes",
                        "responseCoded": 3
                    },
                    {
                        "rt": 1086,
                        "swatch": "BI2A00016",
                        "trialNum": 10,
                        "response": "definitely no",
                        "responseCoded": 3
                    },
                    {
                        "rt": 1565,
                        "swatch": "BI2A00032",
                        "trialNum": 11,
                        "response": "probably yes",
                        "responseCoded": 2
                    },
                    {
                        "rt": 1396,
                        "swatch": "BI2A00017",
                        "trialNum": 12,
                        "response": "maybe yes",
                        "responseCoded": 1
                    },
                    {
                        "rt": 1742,
                        "swatch": "BI2A00009",
                        "trialNum": 13,
                        "response": "probably no",
                        "responseCoded": -2
                    },
                    {
                        "rt": 1230,
                        "swatch": "BI2A00011",
                        "trialNum": 14,
                        "response": "probably yes",
                        "responseCoded": 2
                    },
                    {
                        "rt": 1429,
                        "swatch": "BI2A00029",
                        "trialNum": 15,
                        "response": "definitely no",
                        "responseCoded": 3
                    },
                    {
                        "rt": 1140,
                        "swatch": "BI2A00024",
                        "trialNum": 16,
                        "response": "definitely yes",
                        "responseCoded": 3
                    },
                    {
                        "rt": 1332,
                        "swatch": "BI2A00019",
                        "trialNum": 17,
                        "response": "maybe yes",
                        "responseCoded": 1
                    },
                    {
                        "rt": 1507,
                        "swatch": "BI2A00025",
                        "trialNum": 18,
                        "response": "maybe no",
                        "responseCoded": -1
                    },
                    {
                        "rt": 1117,
                        "swatch": "BI2A00004",
                        "trialNum": 19,
                        "response": "probably no",
                        "responseCoded": -2
                    },
                    {
                        "rt": 1262,
                        "swatch": "BI2A00031",
                        "trialNum": 20,
                        "response": "maybe no",
                        "responseCoded": -1
                    },
                    {
                        "rt": 1699,
                        "swatch": "BI2A00014",
                        "trialNum": 21,
                        "response": "maybe no",
                        "responseCoded": -1
                    },
                    {
                        "rt": 1915,
                        "swatch": "BI2A00030",
                        "trialNum": 22,
                        "response": "maybe no",
                        "responseCoded": -1
                    },
                    {
                        "rt": 1974,
                        "swatch": "BI2A00036",
                        "trialNum": 23,
                        "response": "maybe no",
                        "responseCoded": -1
                    },
                    {
                        "rt": 1550,
                        "swatch": "BI2A00020",
                        "trialNum": 24,
                        "response": "probably no",
                        "responseCoded": -2
                    },
                    {
                        "rt": 1518,
                        "swatch": "BI2A00035",
                        "trialNum": 25,
                        "response": "equally yes/no",
                        "responseCoded": 0
                    },
                    {
                        "rt": 2085,
                        "swatch": "BI2A00043",
                        "trialNum": 26,
                        "response": "maybe no",
                        "responseCoded": -1
                    },
                    {
                        "rt": 1215,
                        "swatch": "BI2A00001",
                        "trialNum": 27,
                        "response": "probably no",
                        "responseCoded": -2
                    },
                    {
                        "rt": 2404,
                        "swatch": "BI2A00010",
                        "trialNum": 28,
                        "response": "maybe no",
                        "responseCoded": -1
                    },
                    {
                        "rt": 1233,
                        "swatch": "BI2A00044",
                        "trialNum": 29,
                        "response": "equally yes/no",
                        "responseCoded": 0
                    },
                    {
                        "rt": 1369,
                        "swatch": "BI2A00040",
                        "trialNum": 30,
                        "response": "maybe no",
                        "responseCoded": -1
                    },
                    {
                        "rt": 2029,
                        "swatch": "BI2A00002",
                        "trialNum": 31,
                        "response": "maybe no",
                        "responseCoded": -1
                    },
                    {
                        "rt": 1220,
                        "swatch": "BI2A00015",
                        "trialNum": 32,
                        "response": "maybe no",
                        "responseCoded": -1
                    },
                    {
                        "rt": 1221,
                        "swatch": "BI2A00006",
                        "trialNum": 33,
                        "response": "maybe yes",
                        "responseCoded": 1
                    },
                    {
                        "rt": 2132,
                        "swatch": "BI2A00042",
                        "trialNum": 34,
                        "response": "probably no",
                        "responseCoded": -2
                    },
                    {
                        "rt": 1158,
                        "swatch": "BI2A00039",
                        "trialNum": 35,
                        "response": "probably yes",
                        "responseCoded": 2
                    },
                    {
                        "rt": 2030,
                        "swatch": "BI2A00037",
                        "trialNum": 36,
                        "response": "probably yes",
                        "responseCoded": 2
                    },
                    {
                        "rt": 1349,
                        "swatch": "BI2A00033",
                        "trialNum": 37,
                        "response": "probably yes",
                        "responseCoded": 2
                    },
                    {
                        "rt": 2366,
                        "swatch": "BI2A00005",
                        "trialNum": 38,
                        "response": "maybe yes",
                        "responseCoded": 1
                    },
                    {
                        "rt": 1064,
                        "swatch": "BI2A00026",
                        "trialNum": 39,
                        "response": "maybe no",
                        "responseCoded": -1
                    },
                    {
                        "rt": 1072,
                        "swatch": "BI2A00003",
                        "trialNum": 40,
                        "response": "maybe no",
                        "responseCoded": -1
                    },
                    {
                        "rt": 1709,
                        "swatch": "BI2A00023",
                        "trialNum": 41,
                        "response": "maybe no",
                        "responseCoded": -1
                    },
                    {
                        "rt": 1223,
                        "swatch": "BI2A00038",
                        "trialNum": 42,
                        "response": "maybe yes",
                        "responseCoded": 1
                    },
                    {
                        "rt": 1437,
                        "swatch": "BI2A00027",
                        "trialNum": 43,
                        "response": "maybe yes",
                        "responseCoded": 1
                    },
                    {
                        "rt": 1635,
                        "swatch": "BI2A00045",
                        "trialNum": 44,
                        "response": "maybe yes",
                        "responseCoded": 1
                    },
                    {
                        "rt": 1310,
                        "swatch": "BI2A00041",
                        "trialNum": 45,
                        "response": "probably no",
                        "responseCoded": -2
                    },
                    {
                        "rt": 2156,
                        "swatch": "BI2A00022",
                        "trialNum": 46,
                        "response": "probably yes",
                        "responseCoded": 2
                    },
                    {
                        "rt": 1231,
                        "swatch": "BI2A00013",
                        "trialNum": 47,
                        "response": "definitely no",
                        "responseCoded": 3
                    },
                    {
                        "rt": 1588,
                        "swatch": "BI2A00047",
                        "trialNum": 48,
                        "response": "probably yes",
                        "responseCoded": 2
                    }
                ],
                "gender": "female",
                "age": "39",
                "comments": "",
                "religion": [
                    "hinduism"
                ],
                "condition": "feelings",
                "fingerprintData": {
                    "ip": "101.222.186.62",
                    "screenHeight": 768,
                    "plugins": [
                        {
                            "description": "Enables Widevine licenses for playback of HTML audio/video content. (version: 1.4.6.758)",
                            "filename": "widevinecdmadapter.dll"
                        },
                        {
                            "description": "Shockwave Flash 16.0 r0",
                            "filename": "pepflashplayer.dll"
                        },
                        {
                            "description": "This plugin allows you to securely access other computers that have been shared with you. To use this plugin you must first install the <a href=\"https://chrome.google.com/remotedesktop\">Chrome Remote Desktop</a> webapp.",
                            "filename": "internal-remoting-viewer"
                        },
                        {
                            "description": "",
                            "filename": "internal-nacl-plugin"
                        },
                        {
                            "description": "",
                            "filename": "pdf.dll"
                        },
                        {
                            "description": "Foxit Reader Plug-In For Firefox and Netscape",
                            "filename": "npFoxitReaderPlugin.dll"
                        },
                        {
                            "description": "Google Update",
                            "filename": "npGoogleUpdate3.dll"
                        },
                        {
                            "description": "NPRuntime Script Plug-in Library for Java(TM) Deploy",
                            "filename": "npDeployJava1.dll"
                        },
                        {
                            "description": "Next Generation Java Plug-in 11.31.2 for Mozilla browsers",
                            "filename": "npjp2.dll"
                        },
                        {
                            "description": "5.1.30514.0",
                            "filename": "npctrl.dll"
                        },
                        {
                            "description": "RealPlayer(tm) LiveConnect-Enabled Plug-In",
                            "filename": "nppl3260.dll"
                        },
                        {
                            "description": "RealJukebox Netscape Plugin",
                            "filename": "nprjplug.dll"
                        },
                        {
                            "description": "RealPlayer Download Plugin",
                            "filename": "nprpplugin.dll"
                        },
                        {
                            "description": "VLC media player Web Plugin 2.0.0",
                            "filename": "npvlc.dll"
                        },
                        {
                            "description": "RealNetworks(tm) RealPlayer Chrome Background Extension Plug-In",
                            "filename": "nprpchromebrowserrecordext.dll"
                        },
                        {
                            "description": "RealPlayer(tm) HTML5VideoShim Plug-In",
                            "filename": "nprphtml5videoshim.dll"
                        },
                        {
                            "description": "Shockwave Flash 16.0 r0",
                            "filename": "NPSWF32_16_0_0_305.dll"
                        }
                    ],
                    "timezone": -330,
                    "colorDepth": 24,
                    "screenWidth": 1366,
                    "geo": {
                        "city": "Kolkata",
                        "region_code": "WB",
                        "region_name": "West Bengal",
                        "ip": "101.222.186.62",
                        "time_zone": "Asia/Kolkata",
                        "longitude": 88.37,
                        "metro_code": 0,
                        "latitude": 22.57,
                        "country_code": "IN",
                        "country_name": "India",
                        "zip_code": ""
                    },
                    "browser": "Mozilla/5.0 (Windows NT 6.1) AppleWebKit/537.36 (KHTML, like Gecko) Chrome/40.0.2214.115 Safari/537.36"
                },
                "ethnicity": [
                    "asian_southAsian"
                ]
            }
        }
    },
    "AcceptTime": "2015-03-03T09:19:05Z",
    "HITId": "3T8DUCXY0NFS8HJNPUVH4PK7OP69T8",
    "Assignment": "",
    "AssignmentStatus": "Submitted",
    "SubmitTime": "2015-03-03T09:20:48Z"
}