{
    "AutoApprovalTime": "2015-03-03T09:24:44Z",
    "AssignmentId": "3F0BG9B9MQWMX4SHA5PXNUHZLEPY76",
    "WorkerId": "AAWX7QFQUNM6D",
    "answers": {
        "data": {
            "trials": [],
            "condition": "pain",
            "allData": {
                "education": "college_some",
                "englishNative": "no",
                "trialData": [
                    {
                        "rt": 66019,
                        "swatch": "BI2A00009",
                        "trialNum": 1,
                        "response": "definitely no",
                        "responseCoded": 3
                    },
                    {
                        "rt": 8836,
                        "swatch": "BI2A00001",
                        "trialNum": 2,
                        "response": "maybe yes",
                        "responseCoded": 1
                    },
                    {
                        "rt": 7671,
                        "swatch": "BI2A00034",
                        "trialNum": 3,
                        "response": "probably no",
                        "responseCoded": -2
                    },
                    {
                        "rt": 6332,
                        "swatch": "BI2A00020",
                        "trialNum": 4,
                        "response": "probably no",
                        "responseCoded": -2
                    },
                    {
                        "rt": 4193,
                        "swatch": "BI2A00030",
                        "trialNum": 5,
                        "response": "definitely no",
                        "responseCoded": 3
                    },
                    {
                        "rt": 4322,
                        "swatch": "BI2A00014",
                        "trialNum": 6,
                        "response": "definitely no",
                        "responseCoded": 3
                    },
                    {
                        "rt": 1616,
                        "swatch": "BI2A00044",
                        "trialNum": 7,
                        "response": "definitely no",
                        "responseCoded": 3
                    },
                    {
                        "rt": 4803,
                        "swatch": "BI2A00026",
                        "trialNum": 8,
                        "response": "maybe yes",
                        "responseCoded": 1
                    },
                    {
                        "rt": 3708,
                        "swatch": "BI2A00006",
                        "trialNum": 9,
                        "response": "maybe no",
                        "responseCoded": -1
                    },
                    {
                        "rt": 7761,
                        "swatch": "BI2A00007",
                        "trialNum": 10,
                        "response": "maybe no",
                        "responseCoded": -1
                    },
                    {
                        "rt": 9601,
                        "swatch": "BI2A00004",
                        "trialNum": 11,
                        "response": "definitely no",
                        "responseCoded": 3
                    },
                    {
                        "rt": 3333,
                        "swatch": "BI2A00042",
                        "trialNum": 12,
                        "response": "definitely no",
                        "responseCoded": 3
                    },
                    {
                        "rt": 8139,
                        "swatch": "BI2A00028",
                        "trialNum": 13,
                        "response": "probably no",
                        "responseCoded": -2
                    },
                    {
                        "rt": 5337,
                        "swatch": "BI2A00029",
                        "trialNum": 14,
                        "response": "definitely no",
                        "responseCoded": 3
                    },
                    {
                        "rt": 5473,
                        "swatch": "BI2A00033",
                        "trialNum": 15,
                        "response": "definitely no",
                        "responseCoded": 3
                    },
                    {
                        "rt": 3216,
                        "swatch": "BI2A00017",
                        "trialNum": 16,
                        "response": "definitely no",
                        "responseCoded": 3
                    },
                    {
                        "rt": 2414,
                        "swatch": "BI2A00011",
                        "trialNum": 17,
                        "response": "definitely no",
                        "responseCoded": 3
                    },
                    {
                        "rt": 9688,
                        "swatch": "BI2A00003",
                        "trialNum": 18,
                        "response": "equally yes/no",
                        "responseCoded": 0
                    },
                    {
                        "rt": 4921,
                        "swatch": "BI2A00018",
                        "trialNum": 19,
                        "response": "probably no",
                        "responseCoded": -2
                    },
                    {
                        "rt": 3050,
                        "swatch": "BI2A00046",
                        "trialNum": 20,
                        "response": "definitely no",
                        "responseCoded": 3
                    },
                    {
                        "rt": 4146,
                        "swatch": "BI2A00038",
                        "trialNum": 21,
                        "response": "probably no",
                        "responseCoded": -2
                    },
                    {
                        "rt": 4474,
                        "swatch": "BI2A00005",
                        "trialNum": 22,
                        "response": "probably no",
                        "responseCoded": -2
                    },
                    {
                        "rt": 3785,
                        "swatch": "BI2A00008",
                        "trialNum": 23,
                        "response": "equally yes/no",
                        "responseCoded": 0
                    },
                    {
                        "rt": 10970,
                        "swatch": "BI2A00024",
                        "trialNum": 24,
                        "response": "maybe no",
                        "responseCoded": -1
                    },
                    {
                        "rt": 5897,
                        "swatch": "BI2A00023",
                        "trialNum": 25,
                        "response": "maybe yes",
                        "responseCoded": 1
                    },
                    {
                        "rt": 4394,
                        "swatch": "BI2A00041",
                        "trialNum": 26,
                        "response": "probably no",
                        "responseCoded": -2
                    },
                    {
                        "rt": 7442,
                        "swatch": "BI2A00016",
                        "trialNum": 27,
                        "response": "probably no",
                        "responseCoded": -2
                    },
                    {
                        "rt": 9769,
                        "swatch": "BI2A00013",
                        "trialNum": 28,
                        "response": "probably no",
                        "responseCoded": -2
                    },
                    {
                        "rt": 9265,
                        "swatch": "BI2A00012",
                        "trialNum": 29,
                        "response": "probably no",
                        "responseCoded": -2
                    },
                    {
                        "rt": 2850,
                        "swatch": "BI2A00027",
                        "trialNum": 30,
                        "response": "definitely no",
                        "responseCoded": 3
                    },
                    {
                        "rt": 2154,
                        "swatch": "BI2A00032",
                        "trialNum": 31,
                        "response": "definitely no",
                        "responseCoded": 3
                    },
                    {
                        "rt": 3249,
                        "swatch": "BI2A00002",
                        "trialNum": 32,
                        "response": "probably no",
                        "responseCoded": -2
                    },
                    {
                        "rt": 1421,
                        "swatch": "BI2A00043",
                        "trialNum": 33,
                        "response": "definitely no",
                        "responseCoded": 3
                    },
                    {
                        "rt": 7913,
                        "swatch": "BI2A00021",
                        "trialNum": 34,
                        "response": "probably no",
                        "responseCoded": -2
                    },
                    {
                        "rt": 7173,
                        "swatch": "BI2A00037",
                        "trialNum": 35,
                        "response": "definitely no",
                        "responseCoded": 3
                    },
                    {
                        "rt": 2307,
                        "swatch": "BI2A00039",
                        "trialNum": 36,
                        "response": "definitely no",
                        "responseCoded": 3
                    },
                    {
                        "rt": 3098,
                        "swatch": "BI2A00035",
                        "trialNum": 37,
                        "response": "definitely no",
                        "responseCoded": 3
                    },
                    {
                        "rt": 6354,
                        "swatch": "BI2A00031",
                        "trialNum": 38,
                        "response": "maybe no",
                        "responseCoded": -1
                    },
                    {
                        "rt": 13585,
                        "swatch": "BI2A00048",
                        "trialNum": 39,
                        "response": "definitely no",
                        "responseCoded": 3
                    },
                    {
                        "rt": 6985,
                        "swatch": "BI2A00019",
                        "trialNum": 40,
                        "response": "probably no",
                        "responseCoded": -2
                    },
                    {
                        "rt": 7365,
                        "swatch": "BI2A00047",
                        "trialNum": 41,
                        "response": "definitely no",
                        "responseCoded": 3
                    },
                    {
                        "rt": 2897,
                        "swatch": "BI2A00010",
                        "trialNum": 42,
                        "response": "definitely no",
                        "responseCoded": 3
                    },
                    {
                        "rt": 4193,
                        "swatch": "BI2A00022",
                        "trialNum": 43,
                        "response": "definitely no",
                        "responseCoded": 3
                    },
                    {
                        "rt": 3769,
                        "swatch": "BI2A00025",
                        "trialNum": 44,
                        "response": "probably no",
                        "responseCoded": -2
                    },
                    {
                        "rt": 3003,
                        "swatch": "BI2A00036",
                        "trialNum": 45,
                        "response": "probably no",
                        "responseCoded": -2
                    },
                    {
                        "rt": 1788,
                        "swatch": "BI2A00015",
                        "trialNum": 46,
                        "response": "definitely no",
                        "responseCoded": 3
                    },
                    {
                        "rt": 7255,
                        "swatch": "BI2A00040",
                        "trialNum": 47,
                        "response": "probably no",
                        "responseCoded": -2
                    },
                    {
                        "rt": 4278,
                        "swatch": "BI2A00045",
                        "trialNum": 48,
                        "response": "definitely no",
                        "responseCoded": 3
                    }
                ],
                "gender": "male",
                "age": "29",
                "comments": "It took quite a long time for the survey to initiate (took too much time for the first page to load). Other than that, everything went fine........ so far. Good luck.",
                "religion": [
                    "hinduism"
                ],
                "condition": "pain",
                "fingerprintData": {
                    "ip": "121.247.194.32",
                    "screenHeight": 800,
                    "plugins": [
                        {
                            "description": "Google Update",
                            "filename": "npGoogleUpdate3.dll"
                        },
                        {
                            "description": "Shockwave Flash 16.0 r0",
                            "filename": "NPSWF32_16_0_0_296.dll"
                        },
                        {
                            "description": "Version 5.40.2.0",
                            "filename": "npo1d.dll"
                        },
                        {
                            "description": "Version 5.40.2.0",
                            "filename": "npgoogletalk.dll"
                        },
                        {
                            "description": "Next Generation Java Plug-in 10.71.2 for Mozilla browsers",
                            "filename": "npjp2.dll"
                        },
                        {
                            "description": "NPRuntime Script Plug-in Library for Java(TM) Deploy",
                            "filename": "npdeployJava1.dll"
                        },
                        {
                            "description": "Facebook Video Calling Plugin",
                            "filename": "npFacebookVideoCalling.dll"
                        },
                        {
                            "description": "Inquisit Mozilla Plugin 4.0.6.0",
                            "filename": "npInquisit.dll"
                        },
                        {
                            "description": "5.1.20913.0",
                            "filename": "npctrl.dll"
                        },
                        {
                            "description": "Adobe PDF Plug-In For Firefox and Netscape \"9.5.5\"",
                            "filename": "nppdf32.dll"
                        },
                        {
                            "description": "iTunes Detector Plug-in",
                            "filename": "npitunes.dll"
                        },
                        {
                            "description": "Yahoo Application State Plugin version 1.0.0.7",
                            "filename": "npYState.dll"
                        },
                        {
                            "description": "RealJukebox Netscape Plugin",
                            "filename": "nprjplug.dll"
                        },
                        {
                            "description": "RealNetworks(tm) RealPlayer Chrome Background Extension Plug-In",
                            "filename": "nprpchromebrowserrecordext.dll"
                        },
                        {
                            "description": "RealPlayer(tm) HTML5VideoShim Plug-In",
                            "filename": "nprphtml5videoshim.dll"
                        },
                        {
                            "description": "RealPlayer(tm) LiveConnect-Enabled Plug-In",
                            "filename": "nppl3260.dll"
                        },
                        {
                            "description": "12.0.1.666",
                            "filename": "nprpjplug.dll"
                        },
                        {
                            "description": "Adobe Shockwave for Director Netscape plug-in, version 11.6.1.629",
                            "filename": "np32dsw.dll"
                        },
                        {
                            "description": "NPWLPG",
                            "filename": "NPWLPG.dll"
                        },
                        {
                            "description": "Office Live Update v1.3",
                            "filename": "npOLW.dll"
                        },
                        {
                            "description": "np-mswmp",
                            "filename": "np-mswmp.dll"
                        }
                    ],
                    "timezone": -330,
                    "colorDepth": 24,
                    "screenWidth": 1280,
                    "geo": {
                        "city": "",
                        "region_code": "",
                        "region_name": "",
                        "ip": "121.247.194.32",
                        "time_zone": "Asia/Kolkata",
                        "longitude": 77,
                        "metro_code": 0,
                        "latitude": 20,
                        "country_code": "IN",
                        "country_name": "India",
                        "zip_code": ""
                    },
                    "browser": "Mozilla/5.0 (Windows NT 6.1; WOW64; rv:12.0) Gecko/20100101 Firefox/12.0"
                },
                "ethnicity": [
                    "asian_southAsian"
                ]
            }
        }
    },
    "AcceptTime": "2015-03-03T08:59:58Z",
    "HITId": "3T8DUCXY0NFS8HJNPUVH4PK7OP69T8",
    "Assignment": "",
    "AssignmentStatus": "Submitted",
    "SubmitTime": "2015-03-03T09:19:44Z"
}