{
    "AutoApprovalTime": "2015-03-03T09:13:41Z",
    "AssignmentId": "3II4UPYCOKGT5B25A8BPA0OT8GBQDO",
    "WorkerId": "AXS9LTZ30XHO9",
    "answers": {
        "data": {
            "trials": [],
            "condition": "animal",
            "allData": {
                "education": "hs_diploma",
                "englishNative": "no",
                "trialData": [
                    {
                        "rt": 51383,
                        "swatch": "BI2A00019",
                        "trialNum": 1,
                        "response": "definitely yes",
                        "responseCoded": 3
                    },
                    {
                        "rt": 5434,
                        "swatch": "BI2A00028",
                        "trialNum": 2,
                        "response": "definitely yes",
                        "responseCoded": 3
                    },
                    {
                        "rt": 5697,
                        "swatch": "BI2A00030",
                        "trialNum": 3,
                        "response": "probably yes",
                        "responseCoded": 2
                    },
                    {
                        "rt": 2822,
                        "swatch": "BI2A00020",
                        "trialNum": 4,
                        "response": "definitely yes",
                        "responseCoded": 3
                    },
                    {
                        "rt": 2481,
                        "swatch": "BI2A00014",
                        "trialNum": 5,
                        "response": "definitely yes",
                        "responseCoded": 3
                    },
                    {
                        "rt": 4186,
                        "swatch": "BI2A00032",
                        "trialNum": 6,
                        "response": "definitely no",
                        "responseCoded": 3
                    },
                    {
                        "rt": 2862,
                        "swatch": "BI2A00016",
                        "trialNum": 7,
                        "response": "definitely no",
                        "responseCoded": 3
                    },
                    {
                        "rt": 3513,
                        "swatch": "BI2A00012",
                        "trialNum": 8,
                        "response": "probably yes",
                        "responseCoded": 2
                    },
                    {
                        "rt": 3045,
                        "swatch": "BI2A00034",
                        "trialNum": 9,
                        "response": "probably yes",
                        "responseCoded": 2
                    },
                    {
                        "rt": 2308,
                        "swatch": "BI2A00005",
                        "trialNum": 10,
                        "response": "definitely yes",
                        "responseCoded": 3
                    },
                    {
                        "rt": 2403,
                        "swatch": "BI2A00027",
                        "trialNum": 11,
                        "response": "probably yes",
                        "responseCoded": 2
                    },
                    {
                        "rt": 2333,
                        "swatch": "BI2A00003",
                        "trialNum": 12,
                        "response": "definitely yes",
                        "responseCoded": 3
                    },
                    {
                        "rt": 3404,
                        "swatch": "BI2A00048",
                        "trialNum": 13,
                        "response": "probably no",
                        "responseCoded": -2
                    },
                    {
                        "rt": 4097,
                        "swatch": "BI2A00035",
                        "trialNum": 14,
                        "response": "definitely yes",
                        "responseCoded": 3
                    },
                    {
                        "rt": 2748,
                        "swatch": "BI2A00011",
                        "trialNum": 15,
                        "response": "definitely yes",
                        "responseCoded": 3
                    },
                    {
                        "rt": 2716,
                        "swatch": "BI2A00006",
                        "trialNum": 16,
                        "response": "definitely yes",
                        "responseCoded": 3
                    },
                    {
                        "rt": 2202,
                        "swatch": "BI2A00024",
                        "trialNum": 17,
                        "response": "definitely yes",
                        "responseCoded": 3
                    },
                    {
                        "rt": 7421,
                        "swatch": "BI2A00041",
                        "trialNum": 18,
                        "response": "maybe no",
                        "responseCoded": -1
                    },
                    {
                        "rt": 2765,
                        "swatch": "BI2A00029",
                        "trialNum": 19,
                        "response": "definitely no",
                        "responseCoded": 3
                    },
                    {
                        "rt": 2764,
                        "swatch": "BI2A00036",
                        "trialNum": 20,
                        "response": "probably no",
                        "responseCoded": -2
                    },
                    {
                        "rt": 2756,
                        "swatch": "BI2A00021",
                        "trialNum": 21,
                        "response": "definitely no",
                        "responseCoded": 3
                    },
                    {
                        "rt": 3446,
                        "swatch": "BI2A00002",
                        "trialNum": 22,
                        "response": "definitely yes",
                        "responseCoded": 3
                    },
                    {
                        "rt": 2887,
                        "swatch": "BI2A00017",
                        "trialNum": 23,
                        "response": "definitely no",
                        "responseCoded": 3
                    },
                    {
                        "rt": 1995,
                        "swatch": "BI2A00043",
                        "trialNum": 24,
                        "response": "definitely no",
                        "responseCoded": 3
                    },
                    {
                        "rt": 3152,
                        "swatch": "BI2A00040",
                        "trialNum": 25,
                        "response": "maybe yes",
                        "responseCoded": 1
                    },
                    {
                        "rt": 3278,
                        "swatch": "BI2A00031",
                        "trialNum": 26,
                        "response": "maybe yes",
                        "responseCoded": 1
                    },
                    {
                        "rt": 2095,
                        "swatch": "BI2A00047",
                        "trialNum": 27,
                        "response": "maybe yes",
                        "responseCoded": 1
                    },
                    {
                        "rt": 2215,
                        "swatch": "BI2A00022",
                        "trialNum": 28,
                        "response": "definitely yes",
                        "responseCoded": 3
                    },
                    {
                        "rt": 1870,
                        "swatch": "BI2A00038",
                        "trialNum": 29,
                        "response": "probably yes",
                        "responseCoded": 2
                    },
                    {
                        "rt": 2105,
                        "swatch": "BI2A00045",
                        "trialNum": 30,
                        "response": "probably yes",
                        "responseCoded": 2
                    },
                    {
                        "rt": 1746,
                        "swatch": "BI2A00001",
                        "trialNum": 31,
                        "response": "definitely yes",
                        "responseCoded": 3
                    },
                    {
                        "rt": 1667,
                        "swatch": "BI2A00009",
                        "trialNum": 32,
                        "response": "definitely yes",
                        "responseCoded": 3
                    },
                    {
                        "rt": 2871,
                        "swatch": "BI2A00007",
                        "trialNum": 33,
                        "response": "definitely yes",
                        "responseCoded": 3
                    },
                    {
                        "rt": 2418,
                        "swatch": "BI2A00033",
                        "trialNum": 34,
                        "response": "definitely no",
                        "responseCoded": 3
                    },
                    {
                        "rt": 2839,
                        "swatch": "BI2A00013",
                        "trialNum": 35,
                        "response": "definitely yes",
                        "responseCoded": 3
                    },
                    {
                        "rt": 1630,
                        "swatch": "BI2A00026",
                        "trialNum": 36,
                        "response": "definitely yes",
                        "responseCoded": 3
                    },
                    {
                        "rt": 2449,
                        "swatch": "BI2A00046",
                        "trialNum": 37,
                        "response": "probably no",
                        "responseCoded": -2
                    },
                    {
                        "rt": 1464,
                        "swatch": "BI2A00042",
                        "trialNum": 38,
                        "response": "definitely yes",
                        "responseCoded": 3
                    },
                    {
                        "rt": 1595,
                        "swatch": "BI2A00004",
                        "trialNum": 39,
                        "response": "definitely yes",
                        "responseCoded": 3
                    },
                    {
                        "rt": 2324,
                        "swatch": "BI2A00037",
                        "trialNum": 40,
                        "response": "definitely yes",
                        "responseCoded": 3
                    },
                    {
                        "rt": 2073,
                        "swatch": "BI2A00008",
                        "trialNum": 41,
                        "response": "definitely yes",
                        "responseCoded": 3
                    },
                    {
                        "rt": 4137,
                        "swatch": "BI2A00018",
                        "trialNum": 42,
                        "response": "definitely no",
                        "responseCoded": 3
                    },
                    {
                        "rt": 3513,
                        "swatch": "BI2A00025",
                        "trialNum": 43,
                        "response": "definitely yes",
                        "responseCoded": 3
                    },
                    {
                        "rt": 2232,
                        "swatch": "BI2A00010",
                        "trialNum": 44,
                        "response": "definitely yes",
                        "responseCoded": 3
                    },
                    {
                        "rt": 2399,
                        "swatch": "BI2A00015",
                        "trialNum": 45,
                        "response": "probably yes",
                        "responseCoded": 2
                    },
                    {
                        "rt": 2994,
                        "swatch": "BI2A00039",
                        "trialNum": 46,
                        "response": "probably no",
                        "responseCoded": -2
                    },
                    {
                        "rt": 2368,
                        "swatch": "BI2A00044",
                        "trialNum": 47,
                        "response": "definitely no",
                        "responseCoded": 3
                    },
                    {
                        "rt": 2335,
                        "swatch": "BI2A00023",
                        "trialNum": 48,
                        "response": "definitely no",
                        "responseCoded": 3
                    }
                ],
                "gender": "female",
                "age": "62",
                "comments": "Nice study. No problem experienced.",
                "religion": [
                    "hinduism"
                ],
                "condition": "animal",
                "fingerprintData": {
                    "ip": "211.26.134.74",
                    "screenHeight": 614,
                    "plugins": [
                        {
                            "description": "Shockwave Flash 16.0 r0",
                            "filename": "Flash.ocx"
                        }
                    ],
                    "timezone": -660,
                    "colorDepth": 24,
                    "screenWidth": 1093,
                    "geo": {
                        "city": "Illawong",
                        "region_code": "NSW",
                        "region_name": "New South Wales",
                        "ip": "211.26.134.74",
                        "time_zone": "Australia/Sydney",
                        "longitude": 151.033,
                        "metro_code": 0,
                        "latitude": -34,
                        "country_code": "AU",
                        "country_name": "Australia",
                        "zip_code": "2234"
                    },
                    "browser": "Mozilla/5.0 (Windows NT 6.3; WOW64; Trident/7.0; .NET4.0E; .NET4.0C; .NET CLR 3.5.30729; .NET CLR 2.0.50727; .NET CLR 3.0.30729; InfoPath.3; MAARJS; rv:11.0) like Gecko"
                },
                "ethnicity": [
                    "asian_southAsian"
                ]
            }
        }
    },
    "AcceptTime": "2015-03-03T08:56:39Z",
    "HITId": "3T8DUCXY0NFS8HJNPUVH4PK7OP69T8",
    "Assignment": "",
    "AssignmentStatus": "Submitted",
    "SubmitTime": "2015-03-03T09:08:41Z"
}