{
    "ApprovalTime": "2015-03-03T09:52:37Z",
    "AutoApprovalTime": "2015-03-03T09:52:09Z",
    "AssignmentId": "3IQ1VMJRYUTPF5I79W91Y4QYDECA9O",
    "WorkerId": "A21LQSF1TA83QU",
    "answers": {
        "data": {
            "trials": [],
            "condition": "happy",
            "allData": {
                "education": "college_bachDegree",
                "englishNative": "no",
                "trialData": [
                    {
                        "rt": 46575,
                        "swatch": "BI2A00036",
                        "trialNum": 1,
                        "response": "probably yes",
                        "responseCoded": 2
                    },
                    {
                        "rt": 4974,
                        "swatch": "BI2A00039",
                        "trialNum": 2,
                        "response": "maybe yes",
                        "responseCoded": 1
                    },
                    {
                        "rt": 3256,
                        "swatch": "BI2A00020",
                        "trialNum": 3,
                        "response": "definitely yes",
                        "responseCoded": 3
                    },
                    {
                        "rt": 4080,
                        "swatch": "BI2A00024",
                        "trialNum": 4,
                        "response": "probably no",
                        "responseCoded": -2
                    },
                    {
                        "rt": 3026,
                        "swatch": "BI2A00004",
                        "trialNum": 5,
                        "response": "maybe no",
                        "responseCoded": -1
                    },
                    {
                        "rt": 2314,
                        "swatch": "BI2A00001",
                        "trialNum": 6,
                        "response": "probably yes",
                        "responseCoded": 2
                    },
                    {
                        "rt": 2265,
                        "swatch": "BI2A00002",
                        "trialNum": 7,
                        "response": "probably no",
                        "responseCoded": -2
                    },
                    {
                        "rt": 1958,
                        "swatch": "BI2A00038",
                        "trialNum": 8,
                        "response": "equally yes/no",
                        "responseCoded": 0
                    },
                    {
                        "rt": 2985,
                        "swatch": "BI2A00040",
                        "trialNum": 9,
                        "response": "probably yes",
                        "responseCoded": 2
                    },
                    {
                        "rt": 2081,
                        "swatch": "BI2A00032",
                        "trialNum": 10,
                        "response": "probably yes",
                        "responseCoded": 2
                    },
                    {
                        "rt": 2584,
                        "swatch": "BI2A00027",
                        "trialNum": 11,
                        "response": "probably no",
                        "responseCoded": -2
                    },
                    {
                        "rt": 2018,
                        "swatch": "BI2A00011",
                        "trialNum": 12,
                        "response": "definitely no",
                        "responseCoded": 3
                    },
                    {
                        "rt": 2059,
                        "swatch": "BI2A00006",
                        "trialNum": 13,
                        "response": "probably yes",
                        "responseCoded": 2
                    },
                    {
                        "rt": 2498,
                        "swatch": "BI2A00019",
                        "trialNum": 14,
                        "response": "probably yes",
                        "responseCoded": 2
                    },
                    {
                        "rt": 2180,
                        "swatch": "BI2A00008",
                        "trialNum": 15,
                        "response": "definitely yes",
                        "responseCoded": 3
                    },
                    {
                        "rt": 2068,
                        "swatch": "BI2A00026",
                        "trialNum": 16,
                        "response": "definitely yes",
                        "responseCoded": 3
                    },
                    {
                        "rt": 2243,
                        "swatch": "BI2A00045",
                        "trialNum": 17,
                        "response": "maybe yes",
                        "responseCoded": 1
                    },
                    {
                        "rt": 2189,
                        "swatch": "BI2A00021",
                        "trialNum": 18,
                        "response": "probably yes",
                        "responseCoded": 2
                    },
                    {
                        "rt": 2026,
                        "swatch": "BI2A00009",
                        "trialNum": 19,
                        "response": "definitely yes",
                        "responseCoded": 3
                    },
                    {
                        "rt": 2105,
                        "swatch": "BI2A00013",
                        "trialNum": 20,
                        "response": "definitely yes",
                        "responseCoded": 3
                    },
                    {
                        "rt": 1952,
                        "swatch": "BI2A00023",
                        "trialNum": 21,
                        "response": "definitely yes",
                        "responseCoded": 3
                    },
                    {
                        "rt": 2082,
                        "swatch": "BI2A00014",
                        "trialNum": 22,
                        "response": "probably yes",
                        "responseCoded": 2
                    },
                    {
                        "rt": 2143,
                        "swatch": "BI2A00044",
                        "trialNum": 23,
                        "response": "probably no",
                        "responseCoded": -2
                    },
                    {
                        "rt": 2474,
                        "swatch": "BI2A00047",
                        "trialNum": 24,
                        "response": "probably no",
                        "responseCoded": -2
                    },
                    {
                        "rt": 3129,
                        "swatch": "BI2A00016",
                        "trialNum": 25,
                        "response": "probably yes",
                        "responseCoded": 2
                    },
                    {
                        "rt": 1894,
                        "swatch": "BI2A00003",
                        "trialNum": 26,
                        "response": "equally yes/no",
                        "responseCoded": 0
                    },
                    {
                        "rt": 2235,
                        "swatch": "BI2A00031",
                        "trialNum": 27,
                        "response": "equally yes/no",
                        "responseCoded": 0
                    },
                    {
                        "rt": 2226,
                        "swatch": "BI2A00022",
                        "trialNum": 28,
                        "response": "definitely no",
                        "responseCoded": 3
                    },
                    {
                        "rt": 2020,
                        "swatch": "BI2A00035",
                        "trialNum": 29,
                        "response": "maybe yes",
                        "responseCoded": 1
                    },
                    {
                        "rt": 2120,
                        "swatch": "BI2A00042",
                        "trialNum": 30,
                        "response": "maybe yes",
                        "responseCoded": 1
                    },
                    {
                        "rt": 1932,
                        "swatch": "BI2A00007",
                        "trialNum": 31,
                        "response": "probably yes",
                        "responseCoded": 2
                    },
                    {
                        "rt": 1816,
                        "swatch": "BI2A00025",
                        "trialNum": 32,
                        "response": "definitely yes",
                        "responseCoded": 3
                    },
                    {
                        "rt": 2351,
                        "swatch": "BI2A00029",
                        "trialNum": 33,
                        "response": "probably yes",
                        "responseCoded": 2
                    },
                    {
                        "rt": 2868,
                        "swatch": "BI2A00043",
                        "trialNum": 34,
                        "response": "definitely yes",
                        "responseCoded": 3
                    },
                    {
                        "rt": 2455,
                        "swatch": "BI2A00046",
                        "trialNum": 35,
                        "response": "maybe no",
                        "responseCoded": -1
                    },
                    {
                        "rt": 3497,
                        "swatch": "BI2A00033",
                        "trialNum": 36,
                        "response": "maybe yes",
                        "responseCoded": 1
                    },
                    {
                        "rt": 2065,
                        "swatch": "BI2A00015",
                        "trialNum": 37,
                        "response": "maybe yes",
                        "responseCoded": 1
                    },
                    {
                        "rt": 2705,
                        "swatch": "BI2A00037",
                        "trialNum": 38,
                        "response": "probably yes",
                        "responseCoded": 2
                    },
                    {
                        "rt": 2135,
                        "swatch": "BI2A00012",
                        "trialNum": 39,
                        "response": "definitely no",
                        "responseCoded": 3
                    },
                    {
                        "rt": 1872,
                        "swatch": "BI2A00005",
                        "trialNum": 40,
                        "response": "probably yes",
                        "responseCoded": 2
                    },
                    {
                        "rt": 1855,
                        "swatch": "BI2A00034",
                        "trialNum": 41,
                        "response": "definitely yes",
                        "responseCoded": 3
                    },
                    {
                        "rt": 2099,
                        "swatch": "BI2A00028",
                        "trialNum": 42,
                        "response": "maybe no",
                        "responseCoded": -1
                    },
                    {
                        "rt": 1662,
                        "swatch": "BI2A00048",
                        "trialNum": 43,
                        "response": "probably no",
                        "responseCoded": -2
                    },
                    {
                        "rt": 2441,
                        "swatch": "BI2A00041",
                        "trialNum": 44,
                        "response": "probably no",
                        "responseCoded": -2
                    },
                    {
                        "rt": 1885,
                        "swatch": "BI2A00010",
                        "trialNum": 45,
                        "response": "probably yes",
                        "responseCoded": 2
                    },
                    {
                        "rt": 2065,
                        "swatch": "BI2A00030",
                        "trialNum": 46,
                        "response": "definitely no",
                        "responseCoded": 3
                    },
                    {
                        "rt": 2182,
                        "swatch": "BI2A00018",
                        "trialNum": 47,
                        "response": "probably yes",
                        "responseCoded": 2
                    },
                    {
                        "rt": 2095,
                        "swatch": "BI2A00017",
                        "trialNum": 48,
                        "response": "definitely yes",
                        "responseCoded": 3
                    }
                ],
                "gender": "male",
                "age": "29",
                "comments": "thank you",
                "religion": [
                    "hinduism"
                ],
                "condition": "happy",
                "fingerprintData": {
                    "ip": "14.97.100.250",
                    "screenHeight": 600,
                    "plugins": [
                        {
                            "description": "Enables Widevine licenses for playback of HTML audio/video content. (version: 1.4.6.758)",
                            "filename": "widevinecdmadapter.dll"
                        },
                        {
                            "description": "Shockwave Flash 16.0 r0",
                            "filename": "pepflashplayer.dll"
                        },
                        {
                            "description": "This plugin allows you to securely access other computers that have been shared with you. To use this plugin you must first install the <a href=\"https://chrome.google.com/remotedesktop\">Chrome Remote Desktop</a> webapp.",
                            "filename": "internal-remoting-viewer"
                        },
                        {
                            "description": "",
                            "filename": "internal-nacl-plugin"
                        },
                        {
                            "description": "",
                            "filename": "pdf.dll"
                        },
                        {
                            "description": "The plug-in allows you to open and edit files using Microsoft Office applications",
                            "filename": "NPSPWRAP.DLL"
                        },
                        {
                            "description": "Google Update",
                            "filename": "npGoogleUpdate3.dll"
                        },
                        {
                            "description": "NPRuntime Script Plug-in Library for Java(TM) Deploy",
                            "filename": "npDeployJava1.dll"
                        },
                        {
                            "description": "Next Generation Java Plug-in 11.31.2 for Mozilla browsers",
                            "filename": "npjp2.dll"
                        },
                        {
                            "description": "NPWLPG",
                            "filename": "NPWLPG.dll"
                        },
                        {
                            "description": "Adobe Shockwave for Director Netscape plug-in, version 11.5.8.612",
                            "filename": "np32dsw.dll"
                        },
                        {
                            "description": "Shockwave Flash 16.0 r0",
                            "filename": "NPSWF32_16_0_0_305.dll"
                        }
                    ],
                    "timezone": -330,
                    "colorDepth": 24,
                    "screenWidth": 1024,
                    "geo": {
                        "city": "Thane",
                        "region_code": "MH",
                        "region_name": "Maharashtra",
                        "ip": "14.97.100.250",
                        "time_zone": "Asia/Kolkata",
                        "longitude": 72.967,
                        "metro_code": 0,
                        "latitude": 19.2,
                        "country_code": "IN",
                        "country_name": "India",
                        "zip_code": ""
                    },
                    "browser": "Mozilla/5.0 (Windows NT 6.1) AppleWebKit/537.36 (KHTML, like Gecko) Chrome/40.0.2214.115 Safari/537.36"
                },
                "ethnicity": [
                    "asian_southAsian"
                ]
            }
        }
    },
    "AcceptTime": "2015-03-03T09:33:42Z",
    "HITId": "3T8DUCXY0NFS8HJNPUVH4PK7OP69T8",
    "Assignment": "",
    "AssignmentStatus": "Approved",
    "SubmitTime": "2015-03-03T09:47:09Z"
}