{
    "AutoApprovalTime": "2015-03-03T09:49:27Z",
    "AssignmentId": "3JAOYWH7VJD6BO9B6NYR7I697PA9L2",
    "WorkerId": "A2XVTSK0ZFURQ1",
    "answers": {
        "data": {
            "trials": [],
            "condition": "feelings",
            "allData": {
                "education": "grad_degree",
                "englishNative": "yes_multiple",
                "trialData": [
                    {
                        "rt": 7079,
                        "swatch": "BI2A00039",
                        "trialNum": 1,
                        "response": "maybe yes",
                        "responseCoded": 1
                    },
                    {
                        "rt": 5483,
                        "swatch": "BI2A00004",
                        "trialNum": 2,
                        "response": "probably no",
                        "responseCoded": -2
                    },
                    {
                        "rt": 2845,
                        "swatch": "BI2A00033",
                        "trialNum": 3,
                        "response": "definitely no",
                        "responseCoded": 3
                    },
                    {
                        "rt": 4950,
                        "swatch": "BI2A00034",
                        "trialNum": 4,
                        "response": "probably yes",
                        "responseCoded": 2
                    },
                    {
                        "rt": 4941,
                        "swatch": "BI2A00006",
                        "trialNum": 5,
                        "response": "maybe no",
                        "responseCoded": -1
                    },
                    {
                        "rt": 5071,
                        "swatch": "BI2A00035",
                        "trialNum": 6,
                        "response": "definitely yes",
                        "responseCoded": 3
                    },
                    {
                        "rt": 5715,
                        "swatch": "BI2A00031",
                        "trialNum": 7,
                        "response": "maybe yes",
                        "responseCoded": 1
                    },
                    {
                        "rt": 3909,
                        "swatch": "BI2A00047",
                        "trialNum": 8,
                        "response": "maybe no",
                        "responseCoded": -1
                    },
                    {
                        "rt": 2798,
                        "swatch": "BI2A00007",
                        "trialNum": 9,
                        "response": "probably no",
                        "responseCoded": -2
                    },
                    {
                        "rt": 2846,
                        "swatch": "BI2A00016",
                        "trialNum": 10,
                        "response": "probably no",
                        "responseCoded": -2
                    },
                    {
                        "rt": 3142,
                        "swatch": "BI2A00010",
                        "trialNum": 11,
                        "response": "definitely no",
                        "responseCoded": 3
                    },
                    {
                        "rt": 3070,
                        "swatch": "BI2A00025",
                        "trialNum": 12,
                        "response": "probably no",
                        "responseCoded": -2
                    },
                    {
                        "rt": 5714,
                        "swatch": "BI2A00018",
                        "trialNum": 13,
                        "response": "definitely yes",
                        "responseCoded": 3
                    },
                    {
                        "rt": 4656,
                        "swatch": "BI2A00014",
                        "trialNum": 14,
                        "response": "maybe yes",
                        "responseCoded": 1
                    },
                    {
                        "rt": 3562,
                        "swatch": "BI2A00022",
                        "trialNum": 15,
                        "response": "maybe no",
                        "responseCoded": -1
                    },
                    {
                        "rt": 3229,
                        "swatch": "BI2A00023",
                        "trialNum": 16,
                        "response": "maybe yes",
                        "responseCoded": 1
                    },
                    {
                        "rt": 3425,
                        "swatch": "BI2A00026",
                        "trialNum": 17,
                        "response": "equally yes/no",
                        "responseCoded": 0
                    },
                    {
                        "rt": 3009,
                        "swatch": "BI2A00003",
                        "trialNum": 18,
                        "response": "probably no",
                        "responseCoded": -2
                    },
                    {
                        "rt": 6111,
                        "swatch": "BI2A00024",
                        "trialNum": 19,
                        "response": "maybe yes",
                        "responseCoded": 1
                    },
                    {
                        "rt": 4651,
                        "swatch": "BI2A00042",
                        "trialNum": 20,
                        "response": "maybe no",
                        "responseCoded": -1
                    },
                    {
                        "rt": 2726,
                        "swatch": "BI2A00038",
                        "trialNum": 21,
                        "response": "definitely yes",
                        "responseCoded": 3
                    },
                    {
                        "rt": 6940,
                        "swatch": "BI2A00019",
                        "trialNum": 22,
                        "response": "maybe yes",
                        "responseCoded": 1
                    },
                    {
                        "rt": 2596,
                        "swatch": "BI2A00021",
                        "trialNum": 23,
                        "response": "maybe no",
                        "responseCoded": -1
                    },
                    {
                        "rt": 2991,
                        "swatch": "BI2A00046",
                        "trialNum": 24,
                        "response": "definitely yes",
                        "responseCoded": 3
                    },
                    {
                        "rt": 2923,
                        "swatch": "BI2A00017",
                        "trialNum": 25,
                        "response": "definitely no",
                        "responseCoded": 3
                    },
                    {
                        "rt": 1955,
                        "swatch": "BI2A00005",
                        "trialNum": 26,
                        "response": "probably no",
                        "responseCoded": -2
                    },
                    {
                        "rt": 2004,
                        "swatch": "BI2A00028",
                        "trialNum": 27,
                        "response": "maybe no",
                        "responseCoded": -1
                    },
                    {
                        "rt": 1747,
                        "swatch": "BI2A00036",
                        "trialNum": 28,
                        "response": "maybe no",
                        "responseCoded": -1
                    },
                    {
                        "rt": 2485,
                        "swatch": "BI2A00009",
                        "trialNum": 29,
                        "response": "maybe yes",
                        "responseCoded": 1
                    },
                    {
                        "rt": 2713,
                        "swatch": "BI2A00008",
                        "trialNum": 30,
                        "response": "maybe no",
                        "responseCoded": -1
                    },
                    {
                        "rt": 3462,
                        "swatch": "BI2A00044",
                        "trialNum": 31,
                        "response": "probably yes",
                        "responseCoded": 2
                    },
                    {
                        "rt": 2407,
                        "swatch": "BI2A00032",
                        "trialNum": 32,
                        "response": "maybe no",
                        "responseCoded": -1
                    },
                    {
                        "rt": 2876,
                        "swatch": "BI2A00048",
                        "trialNum": 33,
                        "response": "definitely yes",
                        "responseCoded": 3
                    },
                    {
                        "rt": 3378,
                        "swatch": "BI2A00001",
                        "trialNum": 34,
                        "response": "equally yes/no",
                        "responseCoded": 0
                    },
                    {
                        "rt": 2917,
                        "swatch": "BI2A00013",
                        "trialNum": 35,
                        "response": "maybe no",
                        "responseCoded": -1
                    },
                    {
                        "rt": 3477,
                        "swatch": "BI2A00011",
                        "trialNum": 36,
                        "response": "probably yes",
                        "responseCoded": 2
                    },
                    {
                        "rt": 2353,
                        "swatch": "BI2A00015",
                        "trialNum": 37,
                        "response": "maybe yes",
                        "responseCoded": 1
                    },
                    {
                        "rt": 2308,
                        "swatch": "BI2A00045",
                        "trialNum": 38,
                        "response": "definitely yes",
                        "responseCoded": 3
                    },
                    {
                        "rt": 2841,
                        "swatch": "BI2A00030",
                        "trialNum": 39,
                        "response": "definitely no",
                        "responseCoded": 3
                    },
                    {
                        "rt": 2191,
                        "swatch": "BI2A00043",
                        "trialNum": 40,
                        "response": "maybe yes",
                        "responseCoded": 1
                    },
                    {
                        "rt": 2427,
                        "swatch": "BI2A00037",
                        "trialNum": 41,
                        "response": "maybe no",
                        "responseCoded": -1
                    },
                    {
                        "rt": 2529,
                        "swatch": "BI2A00040",
                        "trialNum": 42,
                        "response": "maybe yes",
                        "responseCoded": 1
                    },
                    {
                        "rt": 3507,
                        "swatch": "BI2A00002",
                        "trialNum": 43,
                        "response": "equally yes/no",
                        "responseCoded": 0
                    },
                    {
                        "rt": 2831,
                        "swatch": "BI2A00020",
                        "trialNum": 44,
                        "response": "maybe yes",
                        "responseCoded": 1
                    },
                    {
                        "rt": 2234,
                        "swatch": "BI2A00029",
                        "trialNum": 45,
                        "response": "maybe yes",
                        "responseCoded": 1
                    },
                    {
                        "rt": 2779,
                        "swatch": "BI2A00012",
                        "trialNum": 46,
                        "response": "probably yes",
                        "responseCoded": 2
                    },
                    {
                        "rt": 3040,
                        "swatch": "BI2A00027",
                        "trialNum": 47,
                        "response": "definitely no",
                        "responseCoded": 3
                    },
                    {
                        "rt": 3903,
                        "swatch": "BI2A00041",
                        "trialNum": 48,
                        "response": "definitely yes",
                        "responseCoded": 3
                    }
                ],
                "gender": "male",
                "age": "28",
                "comments": "good survey",
                "religion": [
                    "hinduism"
                ],
                "condition": "feelings",
                "fingerprintData": {
                    "ip": "160.83.30.203",
                    "screenHeight": 768,
                    "plugins": [
                        {
                            "description": "Enables Widevine licenses for playback of HTML audio/video content.",
                            "filename": "widevinecdmadapter.dll"
                        },
                        {
                            "description": "Shockwave Flash 15.0 r0",
                            "filename": "pepflashplayer.dll"
                        },
                        {
                            "description": "This plugin allows you to securely access other computers that have been shared with you. To use this plugin you must first install the <a href=\"https://chrome.google.com/remotedesktop\">Chrome Remote Desktop</a> webapp.",
                            "filename": "internal-remoting-viewer"
                        },
                        {
                            "description": "",
                            "filename": "ppGoogleNaClPluginChrome.dll"
                        },
                        {
                            "description": "",
                            "filename": "pdf.dll"
                        },
                        {
                            "description": "ActiveTouch General Plugin Container Version 105",
                            "filename": "npatgpc.dll"
                        },
                        {
                            "description": "Octoshape embedded video plugin",
                            "filename": "npoctoshape.dll"
                        },
                        {
                            "description": "Voltage Authentication Token Plugin",
                            "filename": "npvsth.dll"
                        },
                        {
                            "description": "NPRuntime Script Plug-in Library for Java(TM) Deploy",
                            "filename": "npDeployJava1.dll"
                        },
                        {
                            "description": "Next Generation Java Plug-in 1.6.0_81 for Mozilla browsers",
                            "filename": "npjp2.dll"
                        },
                        {
                            "description": "Citrix Online App Detector Plugin",
                            "filename": "npappdetector.dll"
                        },
                        {
                            "description": "Version 4.9.1.16010",
                            "filename": "npgoogletalk.dll"
                        },
                        {
                            "description": "Google Talk Plugin Video Accelerator version:0.1.44.29",
                            "filename": "npgtpo3dautoplugin.dll"
                        },
                        {
                            "description": "Version 4.9.1.16010",
                            "filename": "npo1d.dll"
                        },
                        {
                            "description": "Octoshape embedded video plugin",
                            "filename": "sua-1312180-0-npoctoshape.dll"
                        },
                        {
                            "description": "Shockwave Flash 16.0 r0",
                            "filename": "NPSWF32_16_0_0_235.dll"
                        },
                        {
                            "description": "5.1.30214.0",
                            "filename": "npctrl.dll"
                        }
                    ],
                    "timezone": -330,
                    "colorDepth": 24,
                    "screenWidth": 1364,
                    "geo": {
                        "city": "",
                        "region_code": "",
                        "region_name": "",
                        "ip": "160.83.30.203",
                        "time_zone": "",
                        "longitude": 9,
                        "metro_code": 0,
                        "latitude": 51,
                        "country_code": "DE",
                        "country_name": "Germany",
                        "zip_code": ""
                    },
                    "browser": "Mozilla/5.0 (Windows NT 6.1; WOW64) AppleWebKit/537.36 (KHTML, like Gecko) Chrome/37.0.2062.120 Safari/537.36"
                },
                "ethnicity": [
                    "asian_otherAsian"
                ]
            }
        }
    },
    "AcceptTime": "2015-03-03T09:40:26Z",
    "HITId": "3T8DUCXY0NFS8HJNPUVH4PK7OP69T8",
    "Assignment": "",
    "AssignmentStatus": "Submitted",
    "SubmitTime": "2015-03-03T09:44:27Z"
}