{
    "AutoApprovalTime": "2015-03-03T09:18:30Z",
    "AssignmentId": "3LWJHTCVCDVQ3VG11E6FY0REKTRQFZ",
    "WorkerId": "A1IU5OP7BBZHZ7",
    "answers": {
        "data": {
            "trials": [],
            "condition": "happy",
            "allData": {
                "education": "grad_degree",
                "englishNative": "no",
                "trialData": [
                    {
                        "rt": 24094,
                        "swatch": "BI2A00002",
                        "trialNum": 1,
                        "response": "definitely no",
                        "responseCoded": 3
                    },
                    {
                        "rt": 5370,
                        "swatch": "BI2A00033",
                        "trialNum": 2,
                        "response": "definitely no",
                        "responseCoded": 3
                    },
                    {
                        "rt": 16590,
                        "swatch": "BI2A00029",
                        "trialNum": 3,
                        "response": "definitely no",
                        "responseCoded": 3
                    },
                    {
                        "rt": 3317,
                        "swatch": "BI2A00040",
                        "trialNum": 4,
                        "response": "definitely no",
                        "responseCoded": 3
                    },
                    {
                        "rt": 2958,
                        "swatch": "BI2A00048",
                        "trialNum": 5,
                        "response": "definitely no",
                        "responseCoded": 3
                    },
                    {
                        "rt": 2317,
                        "swatch": "BI2A00014",
                        "trialNum": 6,
                        "response": "definitely no",
                        "responseCoded": 3
                    },
                    {
                        "rt": 1822,
                        "swatch": "BI2A00042",
                        "trialNum": 7,
                        "response": "definitely no",
                        "responseCoded": 3
                    },
                    {
                        "rt": 1824,
                        "swatch": "BI2A00001",
                        "trialNum": 8,
                        "response": "definitely no",
                        "responseCoded": 3
                    },
                    {
                        "rt": 2158,
                        "swatch": "BI2A00038",
                        "trialNum": 9,
                        "response": "definitely no",
                        "responseCoded": 3
                    },
                    {
                        "rt": 2902,
                        "swatch": "BI2A00020",
                        "trialNum": 10,
                        "response": "definitely no",
                        "responseCoded": 3
                    },
                    {
                        "rt": 12895,
                        "swatch": "BI2A00026",
                        "trialNum": 11,
                        "response": "definitely no",
                        "responseCoded": 3
                    },
                    {
                        "rt": 4668,
                        "swatch": "BI2A00013",
                        "trialNum": 12,
                        "response": "definitely no",
                        "responseCoded": 3
                    },
                    {
                        "rt": 7078,
                        "swatch": "BI2A00039",
                        "trialNum": 13,
                        "response": "definitely no",
                        "responseCoded": 3
                    },
                    {
                        "rt": 1430,
                        "swatch": "BI2A00009",
                        "trialNum": 14,
                        "response": "definitely no",
                        "responseCoded": 3
                    },
                    {
                        "rt": 1050,
                        "swatch": "BI2A00012",
                        "trialNum": 15,
                        "response": "definitely no",
                        "responseCoded": 3
                    },
                    {
                        "rt": 1173,
                        "swatch": "BI2A00007",
                        "trialNum": 16,
                        "response": "definitely no",
                        "responseCoded": 3
                    },
                    {
                        "rt": 1033,
                        "swatch": "BI2A00045",
                        "trialNum": 17,
                        "response": "definitely no",
                        "responseCoded": 3
                    },
                    {
                        "rt": 966,
                        "swatch": "BI2A00023",
                        "trialNum": 18,
                        "response": "definitely no",
                        "responseCoded": 3
                    },
                    {
                        "rt": 1301,
                        "swatch": "BI2A00046",
                        "trialNum": 19,
                        "response": "definitely no",
                        "responseCoded": 3
                    },
                    {
                        "rt": 1048,
                        "swatch": "BI2A00005",
                        "trialNum": 20,
                        "response": "definitely no",
                        "responseCoded": 3
                    },
                    {
                        "rt": 1169,
                        "swatch": "BI2A00030",
                        "trialNum": 21,
                        "response": "definitely no",
                        "responseCoded": 3
                    },
                    {
                        "rt": 999,
                        "swatch": "BI2A00017",
                        "trialNum": 22,
                        "response": "definitely no",
                        "responseCoded": 3
                    },
                    {
                        "rt": 1052,
                        "swatch": "BI2A00035",
                        "trialNum": 23,
                        "response": "definitely no",
                        "responseCoded": 3
                    },
                    {
                        "rt": 1016,
                        "swatch": "BI2A00006",
                        "trialNum": 24,
                        "response": "definitely no",
                        "responseCoded": 3
                    },
                    {
                        "rt": 1047,
                        "swatch": "BI2A00034",
                        "trialNum": 25,
                        "response": "definitely no",
                        "responseCoded": 3
                    },
                    {
                        "rt": 19602,
                        "swatch": "BI2A00022",
                        "trialNum": 26,
                        "response": "definitely no",
                        "responseCoded": 3
                    },
                    {
                        "rt": 1068,
                        "swatch": "BI2A00031",
                        "trialNum": 27,
                        "response": "definitely no",
                        "responseCoded": 3
                    },
                    {
                        "rt": 1798,
                        "swatch": "BI2A00028",
                        "trialNum": 28,
                        "response": "definitely no",
                        "responseCoded": 3
                    },
                    {
                        "rt": 1065,
                        "swatch": "BI2A00025",
                        "trialNum": 29,
                        "response": "definitely no",
                        "responseCoded": 3
                    },
                    {
                        "rt": 1050,
                        "swatch": "BI2A00044",
                        "trialNum": 30,
                        "response": "definitely no",
                        "responseCoded": 3
                    },
                    {
                        "rt": 953,
                        "swatch": "BI2A00008",
                        "trialNum": 31,
                        "response": "definitely no",
                        "responseCoded": 3
                    },
                    {
                        "rt": 1033,
                        "swatch": "BI2A00021",
                        "trialNum": 32,
                        "response": "definitely no",
                        "responseCoded": 3
                    },
                    {
                        "rt": 2146,
                        "swatch": "BI2A00010",
                        "trialNum": 33,
                        "response": "definitely no",
                        "responseCoded": 3
                    },
                    {
                        "rt": 61,
                        "swatch": "BI2A00011",
                        "trialNum": 34,
                        "response": "definitely no",
                        "responseCoded": 3
                    },
                    {
                        "rt": 2554,
                        "swatch": "BI2A00019",
                        "trialNum": 35,
                        "response": "definitely no",
                        "responseCoded": 3
                    },
                    {
                        "rt": 2501,
                        "swatch": "BI2A00003",
                        "trialNum": 36,
                        "response": "definitely no",
                        "responseCoded": 3
                    },
                    {
                        "rt": 2417,
                        "swatch": "BI2A00015",
                        "trialNum": 37,
                        "response": "definitely no",
                        "responseCoded": 3
                    },
                    {
                        "rt": 2399,
                        "swatch": "BI2A00004",
                        "trialNum": 38,
                        "response": "definitely no",
                        "responseCoded": 3
                    },
                    {
                        "rt": 4118,
                        "swatch": "BI2A00037",
                        "trialNum": 39,
                        "response": "definitely no",
                        "responseCoded": 3
                    },
                    {
                        "rt": 4701,
                        "swatch": "BI2A00047",
                        "trialNum": 40,
                        "response": "definitely no",
                        "responseCoded": 3
                    },
                    {
                        "rt": 1334,
                        "swatch": "BI2A00043",
                        "trialNum": 41,
                        "response": "definitely no",
                        "responseCoded": 3
                    },
                    {
                        "rt": 1005,
                        "swatch": "BI2A00016",
                        "trialNum": 42,
                        "response": "definitely no",
                        "responseCoded": 3
                    },
                    {
                        "rt": 2392,
                        "swatch": "BI2A00027",
                        "trialNum": 43,
                        "response": "definitely no",
                        "responseCoded": 3
                    },
                    {
                        "rt": 40464,
                        "swatch": "BI2A00032",
                        "trialNum": 44,
                        "response": "definitely no",
                        "responseCoded": 3
                    },
                    {
                        "rt": 2700,
                        "swatch": "BI2A00036",
                        "trialNum": 45,
                        "response": "definitely no",
                        "responseCoded": 3
                    },
                    {
                        "rt": 2665,
                        "swatch": "BI2A00018",
                        "trialNum": 46,
                        "response": "definitely no",
                        "responseCoded": 3
                    },
                    {
                        "rt": 2289,
                        "swatch": "BI2A00024",
                        "trialNum": 47,
                        "response": "definitely no",
                        "responseCoded": 3
                    },
                    {
                        "rt": 1052,
                        "swatch": "BI2A00041",
                        "trialNum": 48,
                        "response": "definitely no",
                        "responseCoded": 3
                    }
                ],
                "gender": "male",
                "age": "46",
                "comments": "no",
                "religion": [
                    "hinduism"
                ],
                "condition": "happy",
                "fingerprintData": {
                    "ip": "122.174.84.197",
                    "screenHeight": 720,
                    "plugins": [
                        {
                            "description": "Enables Widevine licenses for playback of HTML audio/video content. (version: 1.4.6.758)",
                            "filename": "widevinecdmadapter.dll"
                        },
                        {
                            "description": "Shockwave Flash 16.0 r0",
                            "filename": "pepflashplayer.dll"
                        },
                        {
                            "description": "This plugin allows you to securely access other computers that have been shared with you. To use this plugin you must first install the <a href=\"https://chrome.google.com/remotedesktop\">Chrome Remote Desktop</a> webapp.",
                            "filename": "internal-remoting-viewer"
                        },
                        {
                            "description": "",
                            "filename": "internal-nacl-plugin"
                        },
                        {
                            "description": "",
                            "filename": "pdf.dll"
                        },
                        {
                            "description": "DRM Netscape Network Object",
                            "filename": "npdrmv2.dll"
                        },
                        {
                            "description": "Npdsplay dll",
                            "filename": "npdsplay.dll"
                        },
                        {
                            "description": "DRM Store Netscape Plugin",
                            "filename": "npwmsdrm.dll"
                        },
                        {
                            "description": "Facebook Video Calling Plugin",
                            "filename": "npFacebookVideoCalling.dll"
                        },
                        {
                            "description": "Unity Player 4.3.5f1",
                            "filename": "npUnity3D32.dll"
                        },
                        {
                            "description": "Google Update",
                            "filename": "npGoogleUpdate3.dll"
                        },
                        {
                            "description": "NPRuntime Script Plug-in Library for Java(TM) Deploy",
                            "filename": "npDeployJava1.dll"
                        },
                        {
                            "description": "Next Generation Java Plug-in 10.55.2 for Mozilla browsers",
                            "filename": "npjp2.dll"
                        },
                        {
                            "description": "Inquisit Mozilla Plugin 4.0.4.0",
                            "filename": "npInquisit.dll"
                        },
                        {
                            "description": "K7 Web Protection Browser Extension",
                            "filename": "npK7SRNPExt.dll"
                        },
                        {
                            "description": "Shockwave Flash 16.0 r0",
                            "filename": "NPSWF32_16_0_0_296.dll"
                        }
                    ],
                    "timezone": -330,
                    "colorDepth": 24,
                    "screenWidth": 1280,
                    "geo": {
                        "city": "Chennai",
                        "region_code": "TN",
                        "region_name": "Tamil Nadu",
                        "ip": "122.174.84.197",
                        "time_zone": "Asia/Kolkata",
                        "longitude": 80.283,
                        "metro_code": 0,
                        "latitude": 13.083,
                        "country_code": "IN",
                        "country_name": "India",
                        "zip_code": ""
                    },
                    "browser": "Mozilla/5.0 (Windows NT 5.1) AppleWebKit/537.36 (KHTML, like Gecko) Chrome/40.0.2214.115 Safari/537.36"
                },
                "ethnicity": [
                    "asian_southAsian"
                ]
            }
        }
    },
    "AcceptTime": "2015-03-03T08:59:57Z",
    "HITId": "3T8DUCXY0NFS8HJNPUVH4PK7OP69T8",
    "Assignment": "",
    "AssignmentStatus": "Submitted",
    "SubmitTime": "2015-03-03T09:13:30Z"
}