{
    "AutoApprovalTime": "2015-03-03T08:58:30Z",
    "AssignmentId": "3N2BF7Y2VR3JWC9F4BNYKCJMQ77HM1",
    "WorkerId": "A56TGJW7GWQIC",
    "answers": {
        "data": {
            "trials": [],
            "condition": "animal",
            "allData": {
                "education": "grad_degree",
                "englishNative": "no",
                "trialData": [
                    {
                        "rt": 7083,
                        "swatch": "BI2A00019",
                        "trialNum": 1,
                        "response": "definitely yes",
                        "responseCoded": 3
                    },
                    {
                        "rt": 9368,
                        "swatch": "BI2A00010",
                        "trialNum": 2,
                        "response": "maybe yes",
                        "responseCoded": 1
                    },
                    {
                        "rt": 4792,
                        "swatch": "BI2A00042",
                        "trialNum": 3,
                        "response": "probably no",
                        "responseCoded": -2
                    },
                    {
                        "rt": 3882,
                        "swatch": "BI2A00002",
                        "trialNum": 4,
                        "response": "definitely yes",
                        "responseCoded": 3
                    },
                    {
                        "rt": 1547,
                        "swatch": "BI2A00025",
                        "trialNum": 5,
                        "response": "definitely yes",
                        "responseCoded": 3
                    },
                    {
                        "rt": 2281,
                        "swatch": "BI2A00004",
                        "trialNum": 6,
                        "response": "definitely yes",
                        "responseCoded": 3
                    },
                    {
                        "rt": 1943,
                        "swatch": "BI2A00043",
                        "trialNum": 7,
                        "response": "definitely no",
                        "responseCoded": 3
                    },
                    {
                        "rt": 3242,
                        "swatch": "BI2A00038",
                        "trialNum": 8,
                        "response": "definitely no",
                        "responseCoded": 3
                    },
                    {
                        "rt": 2628,
                        "swatch": "BI2A00031",
                        "trialNum": 9,
                        "response": "probably no",
                        "responseCoded": -2
                    },
                    {
                        "rt": 1892,
                        "swatch": "BI2A00045",
                        "trialNum": 10,
                        "response": "definitely no",
                        "responseCoded": 3
                    },
                    {
                        "rt": 2001,
                        "swatch": "BI2A00001",
                        "trialNum": 11,
                        "response": "maybe yes",
                        "responseCoded": 1
                    },
                    {
                        "rt": 1643,
                        "swatch": "BI2A00046",
                        "trialNum": 12,
                        "response": "definitely no",
                        "responseCoded": 3
                    },
                    {
                        "rt": 2751,
                        "swatch": "BI2A00008",
                        "trialNum": 13,
                        "response": "definitely yes",
                        "responseCoded": 3
                    },
                    {
                        "rt": 5576,
                        "swatch": "BI2A00022",
                        "trialNum": 14,
                        "response": "equally yes/no",
                        "responseCoded": 0
                    },
                    {
                        "rt": 2563,
                        "swatch": "BI2A00037",
                        "trialNum": 15,
                        "response": "probably no",
                        "responseCoded": -2
                    },
                    {
                        "rt": 2875,
                        "swatch": "BI2A00013",
                        "trialNum": 16,
                        "response": "maybe yes",
                        "responseCoded": 1
                    },
                    {
                        "rt": 1938,
                        "swatch": "BI2A00035",
                        "trialNum": 17,
                        "response": "definitely no",
                        "responseCoded": 3
                    },
                    {
                        "rt": 1665,
                        "swatch": "BI2A00044",
                        "trialNum": 18,
                        "response": "definitely no",
                        "responseCoded": 3
                    },
                    {
                        "rt": 4177,
                        "swatch": "BI2A00036",
                        "trialNum": 19,
                        "response": "maybe no",
                        "responseCoded": -1
                    },
                    {
                        "rt": 2477,
                        "swatch": "BI2A00034",
                        "trialNum": 20,
                        "response": "definitely no",
                        "responseCoded": 3
                    },
                    {
                        "rt": 1694,
                        "swatch": "BI2A00026",
                        "trialNum": 21,
                        "response": "probably yes",
                        "responseCoded": 2
                    },
                    {
                        "rt": 1778,
                        "swatch": "BI2A00030",
                        "trialNum": 22,
                        "response": "definitely no",
                        "responseCoded": 3
                    },
                    {
                        "rt": 3612,
                        "swatch": "BI2A00011",
                        "trialNum": 23,
                        "response": "definitely yes",
                        "responseCoded": 3
                    },
                    {
                        "rt": 1893,
                        "swatch": "BI2A00006",
                        "trialNum": 24,
                        "response": "definitely yes",
                        "responseCoded": 3
                    },
                    {
                        "rt": 1277,
                        "swatch": "BI2A00003",
                        "trialNum": 25,
                        "response": "definitely yes",
                        "responseCoded": 3
                    },
                    {
                        "rt": 2217,
                        "swatch": "BI2A00007",
                        "trialNum": 26,
                        "response": "maybe yes",
                        "responseCoded": 1
                    },
                    {
                        "rt": 2383,
                        "swatch": "BI2A00027",
                        "trialNum": 27,
                        "response": "maybe no",
                        "responseCoded": -1
                    },
                    {
                        "rt": 1778,
                        "swatch": "BI2A00009",
                        "trialNum": 28,
                        "response": "maybe yes",
                        "responseCoded": 1
                    },
                    {
                        "rt": 2593,
                        "swatch": "BI2A00021",
                        "trialNum": 29,
                        "response": "equally yes/no",
                        "responseCoded": 0
                    },
                    {
                        "rt": 1791,
                        "swatch": "BI2A00018",
                        "trialNum": 30,
                        "response": "definitely no",
                        "responseCoded": 3
                    },
                    {
                        "rt": 1791,
                        "swatch": "BI2A00020",
                        "trialNum": 31,
                        "response": "probably yes",
                        "responseCoded": 2
                    },
                    {
                        "rt": 1770,
                        "swatch": "BI2A00017",
                        "trialNum": 32,
                        "response": "probably no",
                        "responseCoded": -2
                    },
                    {
                        "rt": 1337,
                        "swatch": "BI2A00014",
                        "trialNum": 33,
                        "response": "maybe no",
                        "responseCoded": -1
                    },
                    {
                        "rt": 1866,
                        "swatch": "BI2A00005",
                        "trialNum": 34,
                        "response": "probably yes",
                        "responseCoded": 2
                    },
                    {
                        "rt": 1730,
                        "swatch": "BI2A00023",
                        "trialNum": 35,
                        "response": "definitely no",
                        "responseCoded": 3
                    },
                    {
                        "rt": 2211,
                        "swatch": "BI2A00033",
                        "trialNum": 36,
                        "response": "definitely no",
                        "responseCoded": 3
                    },
                    {
                        "rt": 1506,
                        "swatch": "BI2A00015",
                        "trialNum": 37,
                        "response": "probably no",
                        "responseCoded": -2
                    },
                    {
                        "rt": 1488,
                        "swatch": "BI2A00048",
                        "trialNum": 38,
                        "response": "definitely no",
                        "responseCoded": 3
                    },
                    {
                        "rt": 1952,
                        "swatch": "BI2A00029",
                        "trialNum": 39,
                        "response": "maybe yes",
                        "responseCoded": 1
                    },
                    {
                        "rt": 1849,
                        "swatch": "BI2A00012",
                        "trialNum": 40,
                        "response": "probably yes",
                        "responseCoded": 2
                    },
                    {
                        "rt": 2755,
                        "swatch": "BI2A00016",
                        "trialNum": 41,
                        "response": "probably no",
                        "responseCoded": -2
                    },
                    {
                        "rt": 1556,
                        "swatch": "BI2A00047",
                        "trialNum": 42,
                        "response": "definitely no",
                        "responseCoded": 3
                    },
                    {
                        "rt": 1375,
                        "swatch": "BI2A00040",
                        "trialNum": 43,
                        "response": "definitely no",
                        "responseCoded": 3
                    },
                    {
                        "rt": 1289,
                        "swatch": "BI2A00039",
                        "trialNum": 44,
                        "response": "definitely no",
                        "responseCoded": 3
                    },
                    {
                        "rt": 1544,
                        "swatch": "BI2A00041",
                        "trialNum": 45,
                        "response": "definitely no",
                        "responseCoded": 3
                    },
                    {
                        "rt": 2183,
                        "swatch": "BI2A00032",
                        "trialNum": 46,
                        "response": "probably yes",
                        "responseCoded": 2
                    },
                    {
                        "rt": 1695,
                        "swatch": "BI2A00028",
                        "trialNum": 47,
                        "response": "maybe yes",
                        "responseCoded": 1
                    },
                    {
                        "rt": 2701,
                        "swatch": "BI2A00024",
                        "trialNum": 48,
                        "response": "probably no",
                        "responseCoded": -2
                    }
                ],
                "gender": "male",
                "age": "29",
                "comments": "",
                "religion": [
                    "hinduism"
                ],
                "condition": "animal",
                "fingerprintData": {
                    "ip": "223.176.143.75",
                    "screenHeight": 768,
                    "plugins": [
                        {
                            "description": "Enables Widevine licenses for playback of HTML audio/video content. (version: 1.4.6.758)",
                            "filename": "widevinecdmadapter.dll"
                        },
                        {
                            "description": "Shockwave Flash 16.0 r0",
                            "filename": "pepflashplayer.dll"
                        },
                        {
                            "description": "This plugin allows you to securely access other computers that have been shared with you. To use this plugin you must first install the <a href=\"https://chrome.google.com/remotedesktop\">Chrome Remote Desktop</a> webapp.",
                            "filename": "internal-remoting-viewer"
                        },
                        {
                            "description": "",
                            "filename": "internal-nacl-plugin"
                        },
                        {
                            "description": "",
                            "filename": "pdf.dll"
                        },
                        {
                            "description": "Java Plug-in 1.6.0_12 for Netscape Navigator (DLL Helper)",
                            "filename": "npjp2.dll"
                        },
                        {
                            "description": "np-mswmp",
                            "filename": "np-mswmp.dll"
                        },
                        {
                            "description": "Macromedia Authorware Web Player Netscape plug-in, version 2004 ",
                            "filename": "np32asw.dll"
                        },
                        {
                            "description": "ActiveTouch General Plugin Container Version 105",
                            "filename": "npatgpc.dll"
                        },
                        {
                            "description": "NPRuntime Script Plug-in Library for Java(TM) Deploy",
                            "filename": "npdeployJava1.dll"
                        },
                        {
                            "description": "Foxit Reader Plug-In For Firefox and Netscape",
                            "filename": "npFoxitReaderPlugin.dll"
                        },
                        {
                            "description": "1.9.0009.1",
                            "filename": "npLegitCheckPlugin.dll"
                        },
                        {
                            "description": "Office Plugin for Netscape Navigator",
                            "filename": "NPOFF12.DLL"
                        },
                        {
                            "description": "1.7.0111.00",
                            "filename": "npOGAPlugin.dll"
                        },
                        {
                            "description": "RealPlayer(tm) LiveConnect-Enabled Plug-In",
                            "filename": "nppl3260.dll"
                        },
                        {
                            "description": "The QuickTime Plugin allows you to view a wide variety of multimedia content in Web pages. For more information, visit the <A HREF=http://www.apple.com/quicktime/>QuickTime</A> Web site.",
                            "filename": "npqtplugin.dll"
                        },
                        {
                            "description": "The QuickTime Plugin allows you to view a wide variety of multimedia content in Web pages. For more information, visit the <A HREF=http://www.apple.com/quicktime/>QuickTime</A> Web site.",
                            "filename": "npqtplugin2.dll"
                        },
                        {
                            "description": "The QuickTime Plugin allows you to view a wide variety of multimedia content in Web pages. For more information, visit the <A HREF=http://www.apple.com/quicktime/>QuickTime</A> Web site.",
                            "filename": "npqtplugin3.dll"
                        },
                        {
                            "description": "The QuickTime Plugin allows you to view a wide variety of multimedia content in Web pages. For more information, visit the <A HREF=http://www.apple.com/quicktime/>QuickTime</A> Web site.",
                            "filename": "npqtplugin4.dll"
                        },
                        {
                            "description": "The QuickTime Plugin allows you to view a wide variety of multimedia content in Web pages. For more information, visit the <A HREF=http://www.apple.com/quicktime/>QuickTime</A> Web site.",
                            "filename": "npqtplugin5.dll"
                        },
                        {
                            "description": "The QuickTime Plugin allows you to view a wide variety of multimedia content in Web pages. For more information, visit the <A HREF=http://www.apple.com/quicktime/>QuickTime</A> Web site.",
                            "filename": "npqtplugin6.dll"
                        },
                        {
                            "description": "The QuickTime Plugin allows you to view a wide variety of multimedia content in Web pages. For more information, visit the <A HREF=http://www.apple.com/quicktime/>QuickTime</A> Web site.",
                            "filename": "npqtplugin7.dll"
                        },
                        {
                            "description": "RealJukebox Netscape Plugin",
                            "filename": "nprjplug.dll"
                        },
                        {
                            "description": "6.0.12.69",
                            "filename": "nprpjplug.dll"
                        },
                        {
                            "description": "Shockwave Flash 10.0 r22",
                            "filename": "NPSWF32.dll"
                        },
                        {
                            "description": "Office Authorization plug-in for NPAPI browsers",
                            "filename": "NPAUTHZ.DLL"
                        },
                        {
                            "description": "The plugin allows you to have a better experience with Microsoft SharePoint",
                            "filename": "NPSPWRAP.DLL"
                        },
                        {
                            "description": "5.1.30214.0",
                            "filename": "npctrl.dll"
                        },
                        {
                            "description": "The plugin allows you to have a better experience with Microsoft Lync",
                            "filename": "npmeetingjoinpluginoc.dll"
                        },
                        {
                            "description": "Google Update",
                            "filename": "npGoogleUpdate3.dll"
                        },
                        {
                            "description": "Version 5.40.2.0",
                            "filename": "npgoogletalk.dll"
                        },
                        {
                            "description": "Version 5.40.2.0",
                            "filename": "npo1d.dll"
                        },
                        {
                            "description": "Adobe Shockwave for Director Netscape plug-in, version 11.6.4.634",
                            "filename": "np32dsw.dll"
                        }
                    ],
                    "timezone": -330,
                    "colorDepth": 24,
                    "screenWidth": 1366,
                    "geo": {
                        "city": "Delhi",
                        "region_code": "DL",
                        "region_name": "National Capital Territory of Delhi",
                        "ip": "223.176.143.75",
                        "time_zone": "Asia/Kolkata",
                        "longitude": 77.217,
                        "metro_code": 0,
                        "latitude": 28.667,
                        "country_code": "IN",
                        "country_name": "India",
                        "zip_code": ""
                    },
                    "browser": "Mozilla/5.0 (Windows NT 6.1) AppleWebKit/537.36 (KHTML, like Gecko) Chrome/40.0.2214.115 Safari/537.36"
                },
                "ethnicity": [
                    "asian_eastAsian"
                ]
            }
        }
    },
    "AcceptTime": "2015-03-03T08:48:09Z",
    "HITId": "3T8DUCXY0NFS8HJNPUVH4PK7OP69T8",
    "Assignment": "",
    "AssignmentStatus": "Submitted",
    "SubmitTime": "2015-03-03T08:53:30Z"
}