{
    "AutoApprovalTime": "2015-03-03T09:46:44Z",
    "AssignmentId": "3NGMS9VZTMRTC6QSNYVLM1N0DRJFFV",
    "WorkerId": "A3AA5G6HENO6VJ",
    "answers": {
        "data": {
            "trials": [],
            "condition": "pain",
            "allData": {
                "education": "college_assocDegree",
                "englishNative": "no",
                "trialData": [
                    {
                        "rt": 5735,
                        "swatch": "BI2A00020",
                        "trialNum": 1,
                        "response": "definitely no",
                        "responseCoded": 3
                    },
                    {
                        "rt": 2849,
                        "swatch": "BI2A00045",
                        "trialNum": 2,
                        "response": "definitely no",
                        "responseCoded": 3
                    },
                    {
                        "rt": 5142,
                        "swatch": "BI2A00041",
                        "trialNum": 3,
                        "response": "definitely no",
                        "responseCoded": 3
                    },
                    {
                        "rt": 10312,
                        "swatch": "BI2A00026",
                        "trialNum": 4,
                        "response": "definitely no",
                        "responseCoded": 3
                    },
                    {
                        "rt": 5353,
                        "swatch": "BI2A00042",
                        "trialNum": 5,
                        "response": "probably yes",
                        "responseCoded": 2
                    },
                    {
                        "rt": 1792,
                        "swatch": "BI2A00003",
                        "trialNum": 6,
                        "response": "definitely no",
                        "responseCoded": 3
                    },
                    {
                        "rt": 4874,
                        "swatch": "BI2A00038",
                        "trialNum": 7,
                        "response": "definitely no",
                        "responseCoded": 3
                    },
                    {
                        "rt": 1665,
                        "swatch": "BI2A00044",
                        "trialNum": 8,
                        "response": "definitely no",
                        "responseCoded": 3
                    },
                    {
                        "rt": 801,
                        "swatch": "BI2A00019",
                        "trialNum": 9,
                        "response": "definitely no",
                        "responseCoded": 3
                    },
                    {
                        "rt": 1314,
                        "swatch": "BI2A00008",
                        "trialNum": 10,
                        "response": "definitely no",
                        "responseCoded": 3
                    },
                    {
                        "rt": 1997,
                        "swatch": "BI2A00022",
                        "trialNum": 11,
                        "response": "definitely no",
                        "responseCoded": 3
                    },
                    {
                        "rt": 2247,
                        "swatch": "BI2A00012",
                        "trialNum": 12,
                        "response": "maybe yes",
                        "responseCoded": 1
                    },
                    {
                        "rt": 2863,
                        "swatch": "BI2A00005",
                        "trialNum": 13,
                        "response": "definitely no",
                        "responseCoded": 3
                    },
                    {
                        "rt": 1766,
                        "swatch": "BI2A00006",
                        "trialNum": 14,
                        "response": "definitely no",
                        "responseCoded": 3
                    },
                    {
                        "rt": 748,
                        "swatch": "BI2A00002",
                        "trialNum": 15,
                        "response": "definitely no",
                        "responseCoded": 3
                    },
                    {
                        "rt": 719,
                        "swatch": "BI2A00043",
                        "trialNum": 16,
                        "response": "definitely no",
                        "responseCoded": 3
                    },
                    {
                        "rt": 712,
                        "swatch": "BI2A00036",
                        "trialNum": 17,
                        "response": "definitely no",
                        "responseCoded": 3
                    },
                    {
                        "rt": 656,
                        "swatch": "BI2A00031",
                        "trialNum": 18,
                        "response": "definitely no",
                        "responseCoded": 3
                    },
                    {
                        "rt": 695,
                        "swatch": "BI2A00040",
                        "trialNum": 19,
                        "response": "definitely no",
                        "responseCoded": 3
                    },
                    {
                        "rt": 720,
                        "swatch": "BI2A00018",
                        "trialNum": 20,
                        "response": "definitely no",
                        "responseCoded": 3
                    },
                    {
                        "rt": 705,
                        "swatch": "BI2A00035",
                        "trialNum": 21,
                        "response": "definitely no",
                        "responseCoded": 3
                    },
                    {
                        "rt": 2089,
                        "swatch": "BI2A00046",
                        "trialNum": 22,
                        "response": "definitely no",
                        "responseCoded": 3
                    },
                    {
                        "rt": 681,
                        "swatch": "BI2A00001",
                        "trialNum": 23,
                        "response": "definitely no",
                        "responseCoded": 3
                    },
                    {
                        "rt": 659,
                        "swatch": "BI2A00032",
                        "trialNum": 24,
                        "response": "definitely no",
                        "responseCoded": 3
                    },
                    {
                        "rt": 681,
                        "swatch": "BI2A00015",
                        "trialNum": 25,
                        "response": "definitely no",
                        "responseCoded": 3
                    },
                    {
                        "rt": 873,
                        "swatch": "BI2A00021",
                        "trialNum": 26,
                        "response": "definitely no",
                        "responseCoded": 3
                    },
                    {
                        "rt": 641,
                        "swatch": "BI2A00014",
                        "trialNum": 27,
                        "response": "definitely no",
                        "responseCoded": 3
                    },
                    {
                        "rt": 576,
                        "swatch": "BI2A00034",
                        "trialNum": 28,
                        "response": "definitely no",
                        "responseCoded": 3
                    },
                    {
                        "rt": 635,
                        "swatch": "BI2A00025",
                        "trialNum": 29,
                        "response": "definitely no",
                        "responseCoded": 3
                    },
                    {
                        "rt": 617,
                        "swatch": "BI2A00011",
                        "trialNum": 30,
                        "response": "definitely no",
                        "responseCoded": 3
                    },
                    {
                        "rt": 619,
                        "swatch": "BI2A00027",
                        "trialNum": 31,
                        "response": "definitely no",
                        "responseCoded": 3
                    },
                    {
                        "rt": 580,
                        "swatch": "BI2A00039",
                        "trialNum": 32,
                        "response": "definitely no",
                        "responseCoded": 3
                    },
                    {
                        "rt": 648,
                        "swatch": "BI2A00017",
                        "trialNum": 33,
                        "response": "definitely no",
                        "responseCoded": 3
                    },
                    {
                        "rt": 624,
                        "swatch": "BI2A00013",
                        "trialNum": 34,
                        "response": "definitely no",
                        "responseCoded": 3
                    },
                    {
                        "rt": 3288,
                        "swatch": "BI2A00029",
                        "trialNum": 35,
                        "response": "definitely no",
                        "responseCoded": 3
                    },
                    {
                        "rt": 790,
                        "swatch": "BI2A00028",
                        "trialNum": 36,
                        "response": "definitely no",
                        "responseCoded": 3
                    },
                    {
                        "rt": 3326,
                        "swatch": "BI2A00010",
                        "trialNum": 37,
                        "response": "definitely no",
                        "responseCoded": 3
                    },
                    {
                        "rt": 912,
                        "swatch": "BI2A00009",
                        "trialNum": 38,
                        "response": "definitely no",
                        "responseCoded": 3
                    },
                    {
                        "rt": 1121,
                        "swatch": "BI2A00023",
                        "trialNum": 39,
                        "response": "definitely no",
                        "responseCoded": 3
                    },
                    {
                        "rt": 713,
                        "swatch": "BI2A00037",
                        "trialNum": 40,
                        "response": "definitely no",
                        "responseCoded": 3
                    },
                    {
                        "rt": 735,
                        "swatch": "BI2A00007",
                        "trialNum": 41,
                        "response": "definitely no",
                        "responseCoded": 3
                    },
                    {
                        "rt": 945,
                        "swatch": "BI2A00047",
                        "trialNum": 42,
                        "response": "definitely no",
                        "responseCoded": 3
                    },
                    {
                        "rt": 769,
                        "swatch": "BI2A00033",
                        "trialNum": 43,
                        "response": "definitely no",
                        "responseCoded": 3
                    },
                    {
                        "rt": 697,
                        "swatch": "BI2A00016",
                        "trialNum": 44,
                        "response": "definitely no",
                        "responseCoded": 3
                    },
                    {
                        "rt": 794,
                        "swatch": "BI2A00030",
                        "trialNum": 45,
                        "response": "definitely no",
                        "responseCoded": 3
                    },
                    {
                        "rt": 3883,
                        "swatch": "BI2A00024",
                        "trialNum": 46,
                        "response": "definitely no",
                        "responseCoded": 3
                    },
                    {
                        "rt": 1049,
                        "swatch": "BI2A00048",
                        "trialNum": 47,
                        "response": "definitely no",
                        "responseCoded": 3
                    },
                    {
                        "rt": 1185,
                        "swatch": "BI2A00004",
                        "trialNum": 48,
                        "response": "definitely no",
                        "responseCoded": 3
                    }
                ],
                "gender": "male",
                "age": "30",
                "comments": "",
                "religion": [
                    "hinduism"
                ],
                "condition": "pain",
                "fingerprintData": {
                    "ip": "103.242.198.174",
                    "screenHeight": 768,
                    "plugins": [
                        {
                            "description": "Adobe PDF Plug-In For Firefox and Netscape",
                            "filename": "nppdf32.dll"
                        },
                        {
                            "description": "Google Update",
                            "filename": "npGoogleUpdate3.dll"
                        },
                        {
                            "description": "Inquisit Mozilla Plugin 4.0.8.0",
                            "filename": "npInquisit.dll"
                        },
                        {
                            "description": "NPRuntime Script Plug-in Library for Java(TM) Deploy",
                            "filename": "npdeployJava1.dll"
                        },
                        {
                            "description": "Next Generation Java Plug-in 11.31.2 for Mozilla browsers",
                            "filename": "npjp2.dll"
                        },
                        {
                            "description": "The QuickTime Plugin allows you to view a wide variety of multimedia content in Web pages. For more information, visit the <A HREF=http://www.apple.com/quicktime/>QuickTime</A> Web site.",
                            "filename": "npqtplugin.dll"
                        },
                        {
                            "description": "The QuickTime Plugin allows you to view a wide variety of multimedia content in Web pages. For more information, visit the <A HREF=http://www.apple.com/quicktime/>QuickTime</A> Web site.",
                            "filename": "npqtplugin4.dll"
                        },
                        {
                            "description": "The QuickTime Plugin allows you to view a wide variety of multimedia content in Web pages. For more information, visit the <A HREF=http://www.apple.com/quicktime/>QuickTime</A> Web site.",
                            "filename": "npqtplugin5.dll"
                        },
                        {
                            "description": "The QuickTime Plugin allows you to view a wide variety of multimedia content in Web pages. For more information, visit the <A HREF=http://www.apple.com/quicktime/>QuickTime</A> Web site.",
                            "filename": "npqtplugin3.dll"
                        },
                        {
                            "description": "The QuickTime Plugin allows you to view a wide variety of multimedia content in Web pages. For more information, visit the <A HREF=http://www.apple.com/quicktime/>QuickTime</A> Web site.",
                            "filename": "npqtplugin2.dll"
                        },
                        {
                            "description": "Shockwave Flash 16.0 r0",
                            "filename": "NPSWF32_16_0_0_305.dll"
                        },
                        {
                            "description": "VLC media player Web Plugin 2.1.3",
                            "filename": "npvlc.dll"
                        },
                        {
                            "description": "Yahoo Application State Plugin version 1.0.0.7",
                            "filename": "npYState.dll"
                        }
                    ],
                    "timezone": -330,
                    "colorDepth": 24,
                    "screenWidth": 1366,
                    "geo": {
                        "city": "",
                        "region_code": "",
                        "region_name": "",
                        "ip": "103.242.198.174",
                        "time_zone": "Asia/Kolkata",
                        "longitude": 77,
                        "metro_code": 0,
                        "latitude": 20,
                        "country_code": "IN",
                        "country_name": "India",
                        "zip_code": ""
                    },
                    "browser": "Mozilla/5.0 (Windows NT 6.1; WOW64; rv:35.0) Gecko/20100101 Firefox/35.0"
                },
                "ethnicity": [
                    "asian_southAsian"
                ]
            }
        }
    },
    "AcceptTime": "2015-03-03T09:35:38Z",
    "HITId": "3T8DUCXY0NFS8HJNPUVH4PK7OP69T8",
    "Assignment": "",
    "AssignmentStatus": "Submitted",
    "SubmitTime": "2015-03-03T09:41:44Z"
}