{
    "AutoApprovalTime": "2015-03-03T09:39:27Z",
    "AssignmentId": "3OUYGIZWR87E6F0WYJ85VOE09VH0PF",
    "WorkerId": "AQ4PB1PVI9U7V",
    "answers": {
        "data": {
            "trials": [],
            "condition": "pain",
            "allData": {
                "education": "college_bachDegree",
                "englishNative": "no",
                "trialData": [
                    {
                        "rt": 1956,
                        "swatch": "BI2A00016",
                        "trialNum": 1,
                        "response": "probably yes",
                        "responseCoded": 2
                    },
                    {
                        "rt": 482,
                        "swatch": "BI2A00045",
                        "trialNum": 2,
                        "response": "definitely yes",
                        "responseCoded": 3
                    },
                    {
                        "rt": 454,
                        "swatch": "BI2A00042",
                        "trialNum": 3,
                        "response": "probably yes",
                        "responseCoded": 2
                    },
                    {
                        "rt": 430,
                        "swatch": "BI2A00032",
                        "trialNum": 4,
                        "response": "maybe yes",
                        "responseCoded": 1
                    },
                    {
                        "rt": 461,
                        "swatch": "BI2A00030",
                        "trialNum": 5,
                        "response": "equally yes/no",
                        "responseCoded": 0
                    },
                    {
                        "rt": 379,
                        "swatch": "BI2A00048",
                        "trialNum": 6,
                        "response": "maybe yes",
                        "responseCoded": 1
                    },
                    {
                        "rt": 409,
                        "swatch": "BI2A00037",
                        "trialNum": 7,
                        "response": "probably yes",
                        "responseCoded": 2
                    },
                    {
                        "rt": 363,
                        "swatch": "BI2A00017",
                        "trialNum": 8,
                        "response": "definitely yes",
                        "responseCoded": 3
                    },
                    {
                        "rt": 434,
                        "swatch": "BI2A00006",
                        "trialNum": 9,
                        "response": "probably yes",
                        "responseCoded": 2
                    },
                    {
                        "rt": 412,
                        "swatch": "BI2A00012",
                        "trialNum": 10,
                        "response": "maybe yes",
                        "responseCoded": 1
                    },
                    {
                        "rt": 564,
                        "swatch": "BI2A00003",
                        "trialNum": 11,
                        "response": "probably no",
                        "responseCoded": -2
                    },
                    {
                        "rt": 634,
                        "swatch": "BI2A00029",
                        "trialNum": 12,
                        "response": "maybe no",
                        "responseCoded": -1
                    },
                    {
                        "rt": 357,
                        "swatch": "BI2A00039",
                        "trialNum": 13,
                        "response": "equally yes/no",
                        "responseCoded": 0
                    },
                    {
                        "rt": 359,
                        "swatch": "BI2A00022",
                        "trialNum": 14,
                        "response": "maybe yes",
                        "responseCoded": 1
                    },
                    {
                        "rt": 331,
                        "swatch": "BI2A00021",
                        "trialNum": 15,
                        "response": "probably yes",
                        "responseCoded": 2
                    },
                    {
                        "rt": 347,
                        "swatch": "BI2A00024",
                        "trialNum": 16,
                        "response": "definitely yes",
                        "responseCoded": 3
                    },
                    {
                        "rt": 359,
                        "swatch": "BI2A00038",
                        "trialNum": 17,
                        "response": "probably yes",
                        "responseCoded": 2
                    },
                    {
                        "rt": 621,
                        "swatch": "BI2A00026",
                        "trialNum": 18,
                        "response": "maybe no",
                        "responseCoded": -1
                    },
                    {
                        "rt": 377,
                        "swatch": "BI2A00036",
                        "trialNum": 19,
                        "response": "equally yes/no",
                        "responseCoded": 0
                    },
                    {
                        "rt": 315,
                        "swatch": "BI2A00009",
                        "trialNum": 20,
                        "response": "maybe yes",
                        "responseCoded": 1
                    },
                    {
                        "rt": 388,
                        "swatch": "BI2A00028",
                        "trialNum": 21,
                        "response": "probably yes",
                        "responseCoded": 2
                    },
                    {
                        "rt": 395,
                        "swatch": "BI2A00002",
                        "trialNum": 22,
                        "response": "equally yes/no",
                        "responseCoded": 0
                    },
                    {
                        "rt": 427,
                        "swatch": "BI2A00010",
                        "trialNum": 23,
                        "response": "probably no",
                        "responseCoded": -2
                    },
                    {
                        "rt": 653,
                        "swatch": "BI2A00008",
                        "trialNum": 24,
                        "response": "maybe no",
                        "responseCoded": -1
                    },
                    {
                        "rt": 380,
                        "swatch": "BI2A00019",
                        "trialNum": 25,
                        "response": "equally yes/no",
                        "responseCoded": 0
                    },
                    {
                        "rt": 387,
                        "swatch": "BI2A00031",
                        "trialNum": 26,
                        "response": "maybe yes",
                        "responseCoded": 1
                    },
                    {
                        "rt": 381,
                        "swatch": "BI2A00035",
                        "trialNum": 27,
                        "response": "probably yes",
                        "responseCoded": 2
                    },
                    {
                        "rt": 800,
                        "swatch": "BI2A00033",
                        "trialNum": 28,
                        "response": "equally yes/no",
                        "responseCoded": 0
                    },
                    {
                        "rt": 779,
                        "swatch": "BI2A00011",
                        "trialNum": 29,
                        "response": "maybe no",
                        "responseCoded": -1
                    },
                    {
                        "rt": 853,
                        "swatch": "BI2A00020",
                        "trialNum": 30,
                        "response": "maybe yes",
                        "responseCoded": 1
                    },
                    {
                        "rt": 363,
                        "swatch": "BI2A00007",
                        "trialNum": 31,
                        "response": "equally yes/no",
                        "responseCoded": 0
                    },
                    {
                        "rt": 835,
                        "swatch": "BI2A00025",
                        "trialNum": 32,
                        "response": "probably yes",
                        "responseCoded": 2
                    },
                    {
                        "rt": 673,
                        "swatch": "BI2A00014",
                        "trialNum": 33,
                        "response": "probably no",
                        "responseCoded": -2
                    },
                    {
                        "rt": 351,
                        "swatch": "BI2A00013",
                        "trialNum": 34,
                        "response": "maybe no",
                        "responseCoded": -1
                    },
                    {
                        "rt": 347,
                        "swatch": "BI2A00043",
                        "trialNum": 35,
                        "response": "equally yes/no",
                        "responseCoded": 0
                    },
                    {
                        "rt": 342,
                        "swatch": "BI2A00041",
                        "trialNum": 36,
                        "response": "maybe yes",
                        "responseCoded": 1
                    },
                    {
                        "rt": 357,
                        "swatch": "BI2A00047",
                        "trialNum": 37,
                        "response": "probably yes",
                        "responseCoded": 2
                    },
                    {
                        "rt": 381,
                        "swatch": "BI2A00023",
                        "trialNum": 38,
                        "response": "maybe yes",
                        "responseCoded": 1
                    },
                    {
                        "rt": 477,
                        "swatch": "BI2A00034",
                        "trialNum": 39,
                        "response": "equally yes/no",
                        "responseCoded": 0
                    },
                    {
                        "rt": 349,
                        "swatch": "BI2A00027",
                        "trialNum": 40,
                        "response": "probably no",
                        "responseCoded": -2
                    },
                    {
                        "rt": 577,
                        "swatch": "BI2A00015",
                        "trialNum": 41,
                        "response": "maybe no",
                        "responseCoded": -1
                    },
                    {
                        "rt": 395,
                        "swatch": "BI2A00004",
                        "trialNum": 42,
                        "response": "equally yes/no",
                        "responseCoded": 0
                    },
                    {
                        "rt": 361,
                        "swatch": "BI2A00018",
                        "trialNum": 43,
                        "response": "maybe yes",
                        "responseCoded": 1
                    },
                    {
                        "rt": 369,
                        "swatch": "BI2A00001",
                        "trialNum": 44,
                        "response": "probably yes",
                        "responseCoded": 2
                    },
                    {
                        "rt": 349,
                        "swatch": "BI2A00040",
                        "trialNum": 45,
                        "response": "definitely yes",
                        "responseCoded": 3
                    },
                    {
                        "rt": 357,
                        "swatch": "BI2A00005",
                        "trialNum": 46,
                        "response": "probably yes",
                        "responseCoded": 2
                    },
                    {
                        "rt": 388,
                        "swatch": "BI2A00044",
                        "trialNum": 47,
                        "response": "maybe yes",
                        "responseCoded": 1
                    },
                    {
                        "rt": 397,
                        "swatch": "BI2A00046",
                        "trialNum": 48,
                        "response": "equally yes/no",
                        "responseCoded": 0
                    }
                ],
                "gender": "female",
                "age": "62",
                "comments": "This survey was interesting.",
                "religion": [
                    "hinduism"
                ],
                "condition": "pain",
                "fingerprintData": {
                    "ip": "59.182.167.177",
                    "screenHeight": 768,
                    "plugins": [
                        {
                            "description": "Adobe PDF Plug-In For Firefox and Netscape 10.1.10",
                            "filename": "nppdf32.dll"
                        },
                        {
                            "description": "Adobe PDF Plug-In For Firefox and Netscape 10.1.10",
                            "filename": "nppdf32.dll"
                        },
                        {
                            "description": "Exent\ufffd AOD Gecko Plugin",
                            "filename": "npExentControl.dll"
                        },
                        {
                            "description": "Google Update",
                            "filename": "npGoogleUpdate3.dll"
                        },
                        {
                            "description": "Intel web components for Intel\ufffd Identity Protection Technology",
                            "filename": "npIntelWebAPIIPT.dll"
                        },
                        {
                            "description": "Intel web components updater - Installs and updates the Intel web components",
                            "filename": "npIntelWebAPIUpdater.dll"
                        },
                        {
                            "description": "NPRuntime Script Plug-in Library for Java(TM) Deploy",
                            "filename": "npdeployJava1.dll"
                        },
                        {
                            "description": "Next Generation Java Plug-in 10.55.2 for Mozilla browsers",
                            "filename": "npjp2.dll"
                        },
                        {
                            "description": "Office Authorization plug-in for NPAPI browsers",
                            "filename": "NPAUTHZ.DLL"
                        },
                        {
                            "description": "The plug-in allows you to open and edit files using Microsoft Office applications",
                            "filename": "NPSPWRAP.DLL"
                        },
                        {
                            "description": "Nitro PDF plugin for Firefox and Chrome",
                            "filename": "npnitromozilla.dll"
                        },
                        {
                            "description": "Shockwave Flash 16.0 r0",
                            "filename": "NPSWF32_16_0_0_305.dll"
                        },
                        {
                            "description": "5.1.20513.0",
                            "filename": "npctrl.dll"
                        },
                        {
                            "description": "Unity Player 4.6.0f3",
                            "filename": "npUnity3D32.dll"
                        }
                    ],
                    "timezone": -330,
                    "colorDepth": 24,
                    "screenWidth": 1366,
                    "geo": {
                        "city": "Mumbai",
                        "region_code": "MH",
                        "region_name": "Maharashtra",
                        "ip": "59.182.167.177",
                        "time_zone": "Asia/Kolkata",
                        "longitude": 72.826,
                        "metro_code": 0,
                        "latitude": 18.975,
                        "country_code": "IN",
                        "country_name": "India",
                        "zip_code": ""
                    },
                    "browser": "Mozilla/5.0 (Windows NT 6.2; WOW64; rv:36.0) Gecko/20100101 Firefox/36.0"
                },
                "ethnicity": [
                    "asian_southAsian"
                ]
            }
        }
    },
    "AcceptTime": "2015-03-03T09:09:21Z",
    "HITId": "3T8DUCXY0NFS8HJNPUVH4PK7OP69T8",
    "Assignment": "",
    "AssignmentStatus": "Submitted",
    "SubmitTime": "2015-03-03T09:34:27Z"
}