{
    "AutoApprovalTime": "2015-03-03T09:33:19Z",
    "AssignmentId": "3PDJHANYK6PH79ONHVGHVGM007T6HH",
    "WorkerId": "A387OFOUJEG6FT",
    "answers": {
        "data": {
            "trials": [],
            "condition": "feelings",
            "allData": {
                "education": "grad_some",
                "englishNative": "yes_multiple",
                "trialData": [
                    {
                        "rt": 13860,
                        "swatch": "BI2A00042",
                        "trialNum": 1,
                        "response": "maybe yes",
                        "responseCoded": 1
                    },
                    {
                        "rt": 4862,
                        "swatch": "BI2A00023",
                        "trialNum": 2,
                        "response": "probably no",
                        "responseCoded": -2
                    },
                    {
                        "rt": 3927,
                        "swatch": "BI2A00034",
                        "trialNum": 3,
                        "response": "equally yes/no",
                        "responseCoded": 0
                    },
                    {
                        "rt": 3626,
                        "swatch": "BI2A00007",
                        "trialNum": 4,
                        "response": "maybe yes",
                        "responseCoded": 1
                    },
                    {
                        "rt": 2691,
                        "swatch": "BI2A00012",
                        "trialNum": 5,
                        "response": "probably yes",
                        "responseCoded": 2
                    },
                    {
                        "rt": 3811,
                        "swatch": "BI2A00029",
                        "trialNum": 6,
                        "response": "maybe no",
                        "responseCoded": -1
                    },
                    {
                        "rt": 1122,
                        "swatch": "BI2A00047",
                        "trialNum": 7,
                        "response": "probably no",
                        "responseCoded": -2
                    },
                    {
                        "rt": 1524,
                        "swatch": "BI2A00016",
                        "trialNum": 8,
                        "response": "maybe yes",
                        "responseCoded": 1
                    },
                    {
                        "rt": 698,
                        "swatch": "BI2A00028",
                        "trialNum": 9,
                        "response": "equally yes/no",
                        "responseCoded": 0
                    },
                    {
                        "rt": 511,
                        "swatch": "BI2A00036",
                        "trialNum": 10,
                        "response": "maybe no",
                        "responseCoded": -1
                    },
                    {
                        "rt": 1209,
                        "swatch": "BI2A00004",
                        "trialNum": 11,
                        "response": "definitely no",
                        "responseCoded": 3
                    },
                    {
                        "rt": 965,
                        "swatch": "BI2A00031",
                        "trialNum": 12,
                        "response": "maybe no",
                        "responseCoded": -1
                    },
                    {
                        "rt": 875,
                        "swatch": "BI2A00002",
                        "trialNum": 13,
                        "response": "equally yes/no",
                        "responseCoded": 0
                    },
                    {
                        "rt": 1267,
                        "swatch": "BI2A00013",
                        "trialNum": 14,
                        "response": "definitely yes",
                        "responseCoded": 3
                    },
                    {
                        "rt": 1218,
                        "swatch": "BI2A00032",
                        "trialNum": 15,
                        "response": "probably yes",
                        "responseCoded": 2
                    },
                    {
                        "rt": 747,
                        "swatch": "BI2A00020",
                        "trialNum": 16,
                        "response": "equally yes/no",
                        "responseCoded": 0
                    },
                    {
                        "rt": 1849,
                        "swatch": "BI2A00014",
                        "trialNum": 17,
                        "response": "maybe no",
                        "responseCoded": -1
                    },
                    {
                        "rt": 371,
                        "swatch": "BI2A00006",
                        "trialNum": 18,
                        "response": "probably no",
                        "responseCoded": -2
                    },
                    {
                        "rt": 423,
                        "swatch": "BI2A00015",
                        "trialNum": 19,
                        "response": "equally yes/no",
                        "responseCoded": 0
                    },
                    {
                        "rt": 537,
                        "swatch": "BI2A00037",
                        "trialNum": 20,
                        "response": "maybe yes",
                        "responseCoded": 1
                    },
                    {
                        "rt": 771,
                        "swatch": "BI2A00019",
                        "trialNum": 21,
                        "response": "definitely no",
                        "responseCoded": 3
                    },
                    {
                        "rt": 1129,
                        "swatch": "BI2A00022",
                        "trialNum": 22,
                        "response": "definitely yes",
                        "responseCoded": 3
                    },
                    {
                        "rt": 652,
                        "swatch": "BI2A00039",
                        "trialNum": 23,
                        "response": "probably yes",
                        "responseCoded": 2
                    },
                    {
                        "rt": 1924,
                        "swatch": "BI2A00011",
                        "trialNum": 24,
                        "response": "maybe yes",
                        "responseCoded": 1
                    },
                    {
                        "rt": 1780,
                        "swatch": "BI2A00044",
                        "trialNum": 25,
                        "response": "probably yes",
                        "responseCoded": 2
                    },
                    {
                        "rt": 666,
                        "swatch": "BI2A00008",
                        "trialNum": 26,
                        "response": "equally yes/no",
                        "responseCoded": 0
                    },
                    {
                        "rt": 710,
                        "swatch": "BI2A00005",
                        "trialNum": 27,
                        "response": "maybe no",
                        "responseCoded": -1
                    },
                    {
                        "rt": 615,
                        "swatch": "BI2A00043",
                        "trialNum": 28,
                        "response": "probably no",
                        "responseCoded": -2
                    },
                    {
                        "rt": 3465,
                        "swatch": "BI2A00046",
                        "trialNum": 29,
                        "response": "probably yes",
                        "responseCoded": 2
                    },
                    {
                        "rt": 2200,
                        "swatch": "BI2A00025",
                        "trialNum": 30,
                        "response": "maybe no",
                        "responseCoded": -1
                    },
                    {
                        "rt": 1620,
                        "swatch": "BI2A00033",
                        "trialNum": 31,
                        "response": "maybe yes",
                        "responseCoded": 1
                    },
                    {
                        "rt": 929,
                        "swatch": "BI2A00001",
                        "trialNum": 32,
                        "response": "equally yes/no",
                        "responseCoded": 0
                    },
                    {
                        "rt": 1208,
                        "swatch": "BI2A00003",
                        "trialNum": 33,
                        "response": "probably yes",
                        "responseCoded": 2
                    },
                    {
                        "rt": 1201,
                        "swatch": "BI2A00045",
                        "trialNum": 34,
                        "response": "maybe yes",
                        "responseCoded": 1
                    },
                    {
                        "rt": 1412,
                        "swatch": "BI2A00010",
                        "trialNum": 35,
                        "response": "equally yes/no",
                        "responseCoded": 0
                    },
                    {
                        "rt": 1380,
                        "swatch": "BI2A00024",
                        "trialNum": 36,
                        "response": "probably no",
                        "responseCoded": -2
                    },
                    {
                        "rt": 1425,
                        "swatch": "BI2A00009",
                        "trialNum": 37,
                        "response": "definitely no",
                        "responseCoded": 3
                    },
                    {
                        "rt": 726,
                        "swatch": "BI2A00021",
                        "trialNum": 38,
                        "response": "equally yes/no",
                        "responseCoded": 0
                    },
                    {
                        "rt": 385,
                        "swatch": "BI2A00027",
                        "trialNum": 39,
                        "response": "maybe yes",
                        "responseCoded": 1
                    },
                    {
                        "rt": 371,
                        "swatch": "BI2A00017",
                        "trialNum": 40,
                        "response": "probably yes",
                        "responseCoded": 2
                    },
                    {
                        "rt": 407,
                        "swatch": "BI2A00041",
                        "trialNum": 41,
                        "response": "definitely yes",
                        "responseCoded": 3
                    },
                    {
                        "rt": 1034,
                        "swatch": "BI2A00038",
                        "trialNum": 42,
                        "response": "maybe yes",
                        "responseCoded": 1
                    },
                    {
                        "rt": 687,
                        "swatch": "BI2A00040",
                        "trialNum": 43,
                        "response": "equally yes/no",
                        "responseCoded": 0
                    },
                    {
                        "rt": 752,
                        "swatch": "BI2A00030",
                        "trialNum": 44,
                        "response": "probably yes",
                        "responseCoded": 2
                    },
                    {
                        "rt": 1085,
                        "swatch": "BI2A00035",
                        "trialNum": 45,
                        "response": "maybe no",
                        "responseCoded": -1
                    },
                    {
                        "rt": 396,
                        "swatch": "BI2A00018",
                        "trialNum": 46,
                        "response": "probably no",
                        "responseCoded": -2
                    },
                    {
                        "rt": 1155,
                        "swatch": "BI2A00048",
                        "trialNum": 47,
                        "response": "equally yes/no",
                        "responseCoded": 0
                    },
                    {
                        "rt": 861,
                        "swatch": "BI2A00026",
                        "trialNum": 48,
                        "response": "maybe yes",
                        "responseCoded": 1
                    }
                ],
                "gender": "male",
                "age": "30",
                "comments": "Is that possible to analyse the human feelings via these type of pictures.",
                "religion": [
                    "christianity_catholic"
                ],
                "condition": "feelings",
                "fingerprintData": {
                    "ip": "117.197.185.32",
                    "screenHeight": 768,
                    "plugins": [
                        {
                            "description": "Enables Widevine licenses for playback of HTML audio/video content. (version: 1.4.6.758)",
                            "filename": "widevinecdmadapter.dll"
                        },
                        {
                            "description": "Shockwave Flash 16.0 r0",
                            "filename": "pepflashplayer.dll"
                        },
                        {
                            "description": "This plugin allows you to securely access other computers that have been shared with you. To use this plugin you must first install the <a href=\"https://chrome.google.com/remotedesktop\">Chrome Remote Desktop</a> webapp.",
                            "filename": "internal-remoting-viewer"
                        },
                        {
                            "description": "",
                            "filename": "internal-nacl-plugin"
                        },
                        {
                            "description": "",
                            "filename": "pdf.dll"
                        },
                        {
                            "description": "DRM Netscape Network Object",
                            "filename": "npdrmv2.dll"
                        },
                        {
                            "description": "Npdsplay dll",
                            "filename": "npdsplay.dll"
                        },
                        {
                            "description": "DRM Store Netscape Plugin",
                            "filename": "npwmsdrm.dll"
                        },
                        {
                            "description": "Inquisit Mozilla Plugin 4.0.7.0",
                            "filename": "npInquisit.dll"
                        },
                        {
                            "description": "Version 5.40.2.0",
                            "filename": "npgoogletalk.dll"
                        },
                        {
                            "description": "Version 5.40.2.0",
                            "filename": "npo1d.dll"
                        },
                        {
                            "description": "Google Update",
                            "filename": "npGoogleUpdate3.dll"
                        },
                        {
                            "description": "Unity Player 4.6.0f3",
                            "filename": "npUnity3D32.dll"
                        },
                        {
                            "description": "VLC media player Web Plugin 2.0.6",
                            "filename": "npvlc.dll"
                        },
                        {
                            "description": "Shockwave Flash 16.0 r0",
                            "filename": "NPSWF32_16_0_0_296.dll"
                        }
                    ],
                    "timezone": -330,
                    "colorDepth": 24,
                    "screenWidth": 1024,
                    "geo": {
                        "city": "",
                        "region_code": "",
                        "region_name": "",
                        "ip": "117.197.185.32",
                        "time_zone": "Asia/Kolkata",
                        "longitude": 77,
                        "metro_code": 0,
                        "latitude": 20,
                        "country_code": "IN",
                        "country_name": "India",
                        "zip_code": ""
                    },
                    "browser": "Mozilla/5.0 (Windows NT 5.1) AppleWebKit/537.36 (KHTML, like Gecko) Chrome/40.0.2214.115 Safari/537.36"
                },
                "ethnicity": [
                    "nativeAmerican"
                ]
            }
        }
    },
    "AcceptTime": "2015-03-03T09:18:04Z",
    "HITId": "3T8DUCXY0NFS8HJNPUVH4PK7OP69T8",
    "Assignment": "",
    "AssignmentStatus": "Submitted",
    "SubmitTime": "2015-03-03T09:28:19Z"
}