{
    "AutoApprovalTime": "2015-03-03T09:18:55Z",
    "AssignmentId": "3UWN2HHPUZEE438VR6EX15FO48YSNX",
    "WorkerId": "AX6JQ37WUHFSH",
    "answers": {
        "data": {
            "trials": [],
            "condition": "think",
            "allData": {
                "education": "grad_degree",
                "englishNative": "no",
                "trialData": [
                    {
                        "rt": 44754,
                        "swatch": "BI2A00046",
                        "trialNum": 1,
                        "response": "definitely no",
                        "responseCoded": 3
                    },
                    {
                        "rt": 3799,
                        "swatch": "BI2A00039",
                        "trialNum": 2,
                        "response": "definitely no",
                        "responseCoded": 3
                    },
                    {
                        "rt": 3000,
                        "swatch": "BI2A00024",
                        "trialNum": 3,
                        "response": "definitely no",
                        "responseCoded": 3
                    },
                    {
                        "rt": 2435,
                        "swatch": "BI2A00026",
                        "trialNum": 4,
                        "response": "definitely no",
                        "responseCoded": 3
                    },
                    {
                        "rt": 1852,
                        "swatch": "BI2A00041",
                        "trialNum": 5,
                        "response": "definitely no",
                        "responseCoded": 3
                    },
                    {
                        "rt": 996,
                        "swatch": "BI2A00042",
                        "trialNum": 6,
                        "response": "definitely no",
                        "responseCoded": 3
                    },
                    {
                        "rt": 828,
                        "swatch": "BI2A00038",
                        "trialNum": 7,
                        "response": "definitely no",
                        "responseCoded": 3
                    },
                    {
                        "rt": 13243,
                        "swatch": "BI2A00022",
                        "trialNum": 8,
                        "response": "definitely no",
                        "responseCoded": 3
                    },
                    {
                        "rt": 2388,
                        "swatch": "BI2A00032",
                        "trialNum": 9,
                        "response": "definitely no",
                        "responseCoded": 3
                    },
                    {
                        "rt": 1652,
                        "swatch": "BI2A00028",
                        "trialNum": 10,
                        "response": "definitely no",
                        "responseCoded": 3
                    },
                    {
                        "rt": 1077,
                        "swatch": "BI2A00001",
                        "trialNum": 11,
                        "response": "definitely no",
                        "responseCoded": 3
                    },
                    {
                        "rt": 2466,
                        "swatch": "BI2A00030",
                        "trialNum": 12,
                        "response": "definitely no",
                        "responseCoded": 3
                    },
                    {
                        "rt": 3340,
                        "swatch": "BI2A00025",
                        "trialNum": 13,
                        "response": "definitely no",
                        "responseCoded": 3
                    },
                    {
                        "rt": 21372,
                        "swatch": "BI2A00035",
                        "trialNum": 14,
                        "response": "definitely no",
                        "responseCoded": 3
                    },
                    {
                        "rt": 2540,
                        "swatch": "BI2A00020",
                        "trialNum": 15,
                        "response": "definitely no",
                        "responseCoded": 3
                    },
                    {
                        "rt": 3339,
                        "swatch": "BI2A00017",
                        "trialNum": 16,
                        "response": "definitely no",
                        "responseCoded": 3
                    },
                    {
                        "rt": 2612,
                        "swatch": "BI2A00011",
                        "trialNum": 17,
                        "response": "definitely no",
                        "responseCoded": 3
                    },
                    {
                        "rt": 8885,
                        "swatch": "BI2A00012",
                        "trialNum": 18,
                        "response": "definitely no",
                        "responseCoded": 3
                    },
                    {
                        "rt": 2533,
                        "swatch": "BI2A00009",
                        "trialNum": 19,
                        "response": "definitely no",
                        "responseCoded": 3
                    },
                    {
                        "rt": 1202,
                        "swatch": "BI2A00045",
                        "trialNum": 20,
                        "response": "definitely no",
                        "responseCoded": 3
                    },
                    {
                        "rt": 15702,
                        "swatch": "BI2A00037",
                        "trialNum": 21,
                        "response": "definitely no",
                        "responseCoded": 3
                    },
                    {
                        "rt": 2396,
                        "swatch": "BI2A00023",
                        "trialNum": 22,
                        "response": "definitely no",
                        "responseCoded": 3
                    },
                    {
                        "rt": 1092,
                        "swatch": "BI2A00036",
                        "trialNum": 23,
                        "response": "definitely no",
                        "responseCoded": 3
                    },
                    {
                        "rt": 1084,
                        "swatch": "BI2A00007",
                        "trialNum": 24,
                        "response": "definitely no",
                        "responseCoded": 3
                    },
                    {
                        "rt": 1212,
                        "swatch": "BI2A00016",
                        "trialNum": 25,
                        "response": "definitely no",
                        "responseCoded": 3
                    },
                    {
                        "rt": 968,
                        "swatch": "BI2A00004",
                        "trialNum": 26,
                        "response": "definitely no",
                        "responseCoded": 3
                    },
                    {
                        "rt": 1116,
                        "swatch": "BI2A00015",
                        "trialNum": 27,
                        "response": "definitely no",
                        "responseCoded": 3
                    },
                    {
                        "rt": 1040,
                        "swatch": "BI2A00033",
                        "trialNum": 28,
                        "response": "definitely no",
                        "responseCoded": 3
                    },
                    {
                        "rt": 1211,
                        "swatch": "BI2A00031",
                        "trialNum": 29,
                        "response": "definitely no",
                        "responseCoded": 3
                    },
                    {
                        "rt": 1028,
                        "swatch": "BI2A00008",
                        "trialNum": 30,
                        "response": "definitely no",
                        "responseCoded": 3
                    },
                    {
                        "rt": 1079,
                        "swatch": "BI2A00029",
                        "trialNum": 31,
                        "response": "definitely no",
                        "responseCoded": 3
                    },
                    {
                        "rt": 926,
                        "swatch": "BI2A00003",
                        "trialNum": 32,
                        "response": "definitely no",
                        "responseCoded": 3
                    },
                    {
                        "rt": 1133,
                        "swatch": "BI2A00019",
                        "trialNum": 33,
                        "response": "definitely no",
                        "responseCoded": 3
                    },
                    {
                        "rt": 852,
                        "swatch": "BI2A00002",
                        "trialNum": 34,
                        "response": "definitely no",
                        "responseCoded": 3
                    },
                    {
                        "rt": 1125,
                        "swatch": "BI2A00014",
                        "trialNum": 35,
                        "response": "definitely no",
                        "responseCoded": 3
                    },
                    {
                        "rt": 1028,
                        "swatch": "BI2A00006",
                        "trialNum": 36,
                        "response": "definitely no",
                        "responseCoded": 3
                    },
                    {
                        "rt": 9004,
                        "swatch": "BI2A00048",
                        "trialNum": 37,
                        "response": "definitely no",
                        "responseCoded": 3
                    },
                    {
                        "rt": 2396,
                        "swatch": "BI2A00010",
                        "trialNum": 38,
                        "response": "definitely no",
                        "responseCoded": 3
                    },
                    {
                        "rt": 2414,
                        "swatch": "BI2A00040",
                        "trialNum": 39,
                        "response": "definitely no",
                        "responseCoded": 3
                    },
                    {
                        "rt": 2573,
                        "swatch": "BI2A00027",
                        "trialNum": 40,
                        "response": "definitely no",
                        "responseCoded": 3
                    },
                    {
                        "rt": 6044,
                        "swatch": "BI2A00013",
                        "trialNum": 41,
                        "response": "definitely no",
                        "responseCoded": 3
                    },
                    {
                        "rt": 2756,
                        "swatch": "BI2A00034",
                        "trialNum": 42,
                        "response": "definitely no",
                        "responseCoded": 3
                    },
                    {
                        "rt": 1637,
                        "swatch": "BI2A00043",
                        "trialNum": 43,
                        "response": "definitely no",
                        "responseCoded": 3
                    },
                    {
                        "rt": 5278,
                        "swatch": "BI2A00047",
                        "trialNum": 44,
                        "response": "definitely no",
                        "responseCoded": 3
                    },
                    {
                        "rt": 2305,
                        "swatch": "BI2A00044",
                        "trialNum": 45,
                        "response": "definitely no",
                        "responseCoded": 3
                    },
                    {
                        "rt": 1276,
                        "swatch": "BI2A00021",
                        "trialNum": 46,
                        "response": "definitely no",
                        "responseCoded": 3
                    },
                    {
                        "rt": 924,
                        "swatch": "BI2A00018",
                        "trialNum": 47,
                        "response": "definitely no",
                        "responseCoded": 3
                    },
                    {
                        "rt": 972,
                        "swatch": "BI2A00005",
                        "trialNum": 48,
                        "response": "definitely no",
                        "responseCoded": 3
                    }
                ],
                "gender": "male",
                "age": "48",
                "comments": "nothing",
                "religion": [
                    "hinduism"
                ],
                "condition": "think",
                "fingerprintData": {
                    "ip": "122.174.89.88",
                    "screenHeight": 768,
                    "plugins": [
                        {
                            "description": "Enables Widevine licenses for playback of HTML audio/video content. (version: 1.4.6.758)",
                            "filename": "widevinecdmadapter.dll"
                        },
                        {
                            "description": "Shockwave Flash 16.0 r0",
                            "filename": "pepflashplayer.dll"
                        },
                        {
                            "description": "Adobe PDF Plug-In For Firefox and Netscape 11.0.10",
                            "filename": "nppdf32.dll"
                        },
                        {
                            "description": "NPRuntime Script Plug-in Library for Java(TM) Deploy",
                            "filename": "npDeployJava1.dll"
                        },
                        {
                            "description": "Next Generation Java Plug-in 10.55.2 for Mozilla browsers",
                            "filename": "npjp2.dll"
                        },
                        {
                            "description": "Inquisit Mozilla Plugin 4.0.6.0",
                            "filename": "npInquisit.dll"
                        },
                        {
                            "description": "RealPlayer(tm) LiveConnect-Enabled Plug-In",
                            "filename": "nppl3260.dll"
                        },
                        {
                            "description": "RealPlayer Download Plugin",
                            "filename": "nprpplugin.dll"
                        },
                        {
                            "description": "K7 Web Protection Browser Extension",
                            "filename": "npK7SRNPExt.dll"
                        },
                        {
                            "description": "RealNetworks(tm) RealDownloader HTML5VideoShim Plug-In",
                            "filename": "nprndlhtml5videoshim.dll"
                        },
                        {
                            "description": "RealNetworks(tm) RealDownloader PepperFlashVideoShim Plug-In",
                            "filename": "nprndlpepperflashvideoshim.dll"
                        },
                        {
                            "description": "RealDownloader Plugin",
                            "filename": "npdlplugin.dll"
                        },
                        {
                            "description": "Unity Player 4.5.1f3",
                            "filename": "npUnity3D32.dll"
                        },
                        {
                            "description": "Facebook Video Calling Plugin",
                            "filename": "npFacebookVideoCalling.dll"
                        },
                        {
                            "description": "Shockwave Flash 16.0 r0",
                            "filename": "NPSWF32_16_0_0_305.dll"
                        }
                    ],
                    "timezone": -330,
                    "colorDepth": 24,
                    "screenWidth": 1366,
                    "geo": {
                        "city": "Madurai",
                        "region_code": "TN",
                        "region_name": "Tamil Nadu",
                        "ip": "122.174.89.88",
                        "time_zone": "Asia/Kolkata",
                        "longitude": 78.117,
                        "metro_code": 0,
                        "latitude": 9.933,
                        "country_code": "IN",
                        "country_name": "India",
                        "zip_code": ""
                    },
                    "browser": "Mozilla/5.0 (Windows NT 6.1; WOW64) AppleWebKit/537.36 (KHTML, like Gecko) Chrome/40.0.2214.115 Safari/537.36"
                },
                "ethnicity": [
                    "asian_southAsian"
                ]
            }
        }
    },
    "AcceptTime": "2015-03-03T09:03:16Z",
    "HITId": "3T8DUCXY0NFS8HJNPUVH4PK7OP69T8",
    "Assignment": "",
    "AssignmentStatus": "Submitted",
    "SubmitTime": "2015-03-03T09:13:55Z"
}