{
    "AutoApprovalTime": "2015-03-03T10:02:56Z",
    "AssignmentId": "3VSOLARPKCIPVKJM0HURBWCS73J93O",
    "WorkerId": "A3BNL0IZTWH9F7",
    "answers": {
        "data": {
            "trials": [],
            "condition": "think",
            "allData": {
                "education": "college_bachDegree",
                "englishNative": "yes_multiple",
                "trialData": [
                    {
                        "rt": 21500,
                        "swatch": "BI2A00047",
                        "trialNum": 1,
                        "response": "probably yes",
                        "responseCoded": 2
                    },
                    {
                        "rt": 1335,
                        "swatch": "BI2A00023",
                        "trialNum": 2,
                        "response": "definitely yes",
                        "responseCoded": 3
                    },
                    {
                        "rt": 980,
                        "swatch": "BI2A00014",
                        "trialNum": 3,
                        "response": "probably yes",
                        "responseCoded": 2
                    },
                    {
                        "rt": 1613,
                        "swatch": "BI2A00011",
                        "trialNum": 4,
                        "response": "definitely yes",
                        "responseCoded": 3
                    },
                    {
                        "rt": 1306,
                        "swatch": "BI2A00018",
                        "trialNum": 5,
                        "response": "probably yes",
                        "responseCoded": 2
                    },
                    {
                        "rt": 973,
                        "swatch": "BI2A00033",
                        "trialNum": 6,
                        "response": "definitely yes",
                        "responseCoded": 3
                    },
                    {
                        "rt": 1296,
                        "swatch": "BI2A00019",
                        "trialNum": 7,
                        "response": "definitely yes",
                        "responseCoded": 3
                    },
                    {
                        "rt": 1113,
                        "swatch": "BI2A00007",
                        "trialNum": 8,
                        "response": "definitely yes",
                        "responseCoded": 3
                    },
                    {
                        "rt": 935,
                        "swatch": "BI2A00048",
                        "trialNum": 9,
                        "response": "probably yes",
                        "responseCoded": 2
                    },
                    {
                        "rt": 2154,
                        "swatch": "BI2A00032",
                        "trialNum": 10,
                        "response": "definitely yes",
                        "responseCoded": 3
                    },
                    {
                        "rt": 1211,
                        "swatch": "BI2A00031",
                        "trialNum": 11,
                        "response": "probably yes",
                        "responseCoded": 2
                    },
                    {
                        "rt": 961,
                        "swatch": "BI2A00037",
                        "trialNum": 12,
                        "response": "definitely yes",
                        "responseCoded": 3
                    },
                    {
                        "rt": 1632,
                        "swatch": "BI2A00045",
                        "trialNum": 13,
                        "response": "definitely yes",
                        "responseCoded": 3
                    },
                    {
                        "rt": 1001,
                        "swatch": "BI2A00006",
                        "trialNum": 14,
                        "response": "definitely yes",
                        "responseCoded": 3
                    },
                    {
                        "rt": 11080,
                        "swatch": "BI2A00027",
                        "trialNum": 15,
                        "response": "probably yes",
                        "responseCoded": 2
                    },
                    {
                        "rt": 1404,
                        "swatch": "BI2A00034",
                        "trialNum": 16,
                        "response": "definitely yes",
                        "responseCoded": 3
                    },
                    {
                        "rt": 1216,
                        "swatch": "BI2A00024",
                        "trialNum": 17,
                        "response": "definitely yes",
                        "responseCoded": 3
                    },
                    {
                        "rt": 1103,
                        "swatch": "BI2A00039",
                        "trialNum": 18,
                        "response": "probably yes",
                        "responseCoded": 2
                    },
                    {
                        "rt": 942,
                        "swatch": "BI2A00003",
                        "trialNum": 19,
                        "response": "definitely yes",
                        "responseCoded": 3
                    },
                    {
                        "rt": 1103,
                        "swatch": "BI2A00046",
                        "trialNum": 20,
                        "response": "probably yes",
                        "responseCoded": 2
                    },
                    {
                        "rt": 1116,
                        "swatch": "BI2A00029",
                        "trialNum": 21,
                        "response": "definitely yes",
                        "responseCoded": 3
                    },
                    {
                        "rt": 2572,
                        "swatch": "BI2A00036",
                        "trialNum": 22,
                        "response": "maybe yes",
                        "responseCoded": 1
                    },
                    {
                        "rt": 1125,
                        "swatch": "BI2A00043",
                        "trialNum": 23,
                        "response": "definitely yes",
                        "responseCoded": 3
                    },
                    {
                        "rt": 1623,
                        "swatch": "BI2A00009",
                        "trialNum": 24,
                        "response": "probably yes",
                        "responseCoded": 2
                    },
                    {
                        "rt": 1245,
                        "swatch": "BI2A00026",
                        "trialNum": 25,
                        "response": "definitely yes",
                        "responseCoded": 3
                    },
                    {
                        "rt": 1860,
                        "swatch": "BI2A00042",
                        "trialNum": 26,
                        "response": "definitely yes",
                        "responseCoded": 3
                    },
                    {
                        "rt": 1383,
                        "swatch": "BI2A00005",
                        "trialNum": 27,
                        "response": "definitely yes",
                        "responseCoded": 3
                    },
                    {
                        "rt": 1559,
                        "swatch": "BI2A00004",
                        "trialNum": 28,
                        "response": "probably yes",
                        "responseCoded": 2
                    },
                    {
                        "rt": 964,
                        "swatch": "BI2A00002",
                        "trialNum": 29,
                        "response": "definitely yes",
                        "responseCoded": 3
                    },
                    {
                        "rt": 1135,
                        "swatch": "BI2A00008",
                        "trialNum": 30,
                        "response": "probably yes",
                        "responseCoded": 2
                    },
                    {
                        "rt": 3121,
                        "swatch": "BI2A00017",
                        "trialNum": 31,
                        "response": "definitely yes",
                        "responseCoded": 3
                    },
                    {
                        "rt": 2793,
                        "swatch": "BI2A00028",
                        "trialNum": 32,
                        "response": "probably yes",
                        "responseCoded": 2
                    },
                    {
                        "rt": 1892,
                        "swatch": "BI2A00015",
                        "trialNum": 33,
                        "response": "probably yes",
                        "responseCoded": 2
                    },
                    {
                        "rt": 5177,
                        "swatch": "BI2A00035",
                        "trialNum": 34,
                        "response": "definitely yes",
                        "responseCoded": 3
                    },
                    {
                        "rt": 1604,
                        "swatch": "BI2A00044",
                        "trialNum": 35,
                        "response": "definitely yes",
                        "responseCoded": 3
                    },
                    {
                        "rt": 1284,
                        "swatch": "BI2A00041",
                        "trialNum": 36,
                        "response": "definitely yes",
                        "responseCoded": 3
                    },
                    {
                        "rt": 1004,
                        "swatch": "BI2A00021",
                        "trialNum": 37,
                        "response": "probably yes",
                        "responseCoded": 2
                    },
                    {
                        "rt": 1853,
                        "swatch": "BI2A00020",
                        "trialNum": 38,
                        "response": "definitely yes",
                        "responseCoded": 3
                    },
                    {
                        "rt": 2374,
                        "swatch": "BI2A00025",
                        "trialNum": 39,
                        "response": "definitely yes",
                        "responseCoded": 3
                    },
                    {
                        "rt": 1144,
                        "swatch": "BI2A00022",
                        "trialNum": 40,
                        "response": "probably yes",
                        "responseCoded": 2
                    },
                    {
                        "rt": 4001,
                        "swatch": "BI2A00016",
                        "trialNum": 41,
                        "response": "maybe yes",
                        "responseCoded": 1
                    },
                    {
                        "rt": 3611,
                        "swatch": "BI2A00040",
                        "trialNum": 42,
                        "response": "probably yes",
                        "responseCoded": 2
                    },
                    {
                        "rt": 912,
                        "swatch": "BI2A00013",
                        "trialNum": 43,
                        "response": "definitely yes",
                        "responseCoded": 3
                    },
                    {
                        "rt": 1495,
                        "swatch": "BI2A00012",
                        "trialNum": 44,
                        "response": "definitely yes",
                        "responseCoded": 3
                    },
                    {
                        "rt": 1194,
                        "swatch": "BI2A00038",
                        "trialNum": 45,
                        "response": "probably yes",
                        "responseCoded": 2
                    },
                    {
                        "rt": 884,
                        "swatch": "BI2A00010",
                        "trialNum": 46,
                        "response": "definitely yes",
                        "responseCoded": 3
                    },
                    {
                        "rt": 2003,
                        "swatch": "BI2A00030",
                        "trialNum": 47,
                        "response": "probably yes",
                        "responseCoded": 2
                    },
                    {
                        "rt": 2213,
                        "swatch": "BI2A00001",
                        "trialNum": 48,
                        "response": "definitely yes",
                        "responseCoded": 3
                    }
                ],
                "gender": "male",
                "age": "28",
                "comments": "Whether  is are creating software, apps, or real-life widgets, using one of our ... Here are a few ideas on how you can send surveys, get feedback and  Learn what customers like and dislike, and what updates, I can make to improve the experience  or product, there are insights your customers are just waiting to share.",
                "religion": [
                    "christianity_catholic",
                    "hinduism",
                    "jainism"
                ],
                "condition": "think",
                "fingerprintData": {
                    "ip": "14.99.11.215",
                    "screenHeight": 900,
                    "plugins": [
                        {
                            "description": "This plugin allows you to securely access other computers that have been shared with you. To use this plugin you must first install the <a href=\"https://chrome.google.com/remotedesktop\">Chrome Remote Desktop</a> webapp.",
                            "filename": "internal-remoting-viewer"
                        },
                        {
                            "description": "",
                            "filename": "internal-nacl-plugin"
                        },
                        {
                            "description": "",
                            "filename": "pdf.dll"
                        },
                        {
                            "description": "The QuickTime Plugin allows you to view a wide variety of multimedia content in Web pages. For more information, visit the <A HREF=http://www.apple.com/quicktime/>QuickTime</A> Web site.",
                            "filename": "npqtplugin.dll"
                        },
                        {
                            "description": "The QuickTime Plugin allows you to view a wide variety of multimedia content in Web pages. For more information, visit the <A HREF=http://www.apple.com/quicktime/>QuickTime</A> Web site.",
                            "filename": "npqtplugin2.dll"
                        },
                        {
                            "description": "The QuickTime Plugin allows you to view a wide variety of multimedia content in Web pages. For more information, visit the <A HREF=http://www.apple.com/quicktime/>QuickTime</A> Web site.",
                            "filename": "npqtplugin3.dll"
                        },
                        {
                            "description": "The QuickTime Plugin allows you to view a wide variety of multimedia content in Web pages. For more information, visit the <A HREF=http://www.apple.com/quicktime/>QuickTime</A> Web site.",
                            "filename": "npqtplugin4.dll"
                        },
                        {
                            "description": "The QuickTime Plugin allows you to view a wide variety of multimedia content in Web pages. For more information, visit the <A HREF=http://www.apple.com/quicktime/>QuickTime</A> Web site.",
                            "filename": "npqtplugin5.dll"
                        },
                        {
                            "description": "The QuickTime Plugin allows you to view a wide variety of multimedia content in Web pages. For more information, visit the <A HREF=http://www.apple.com/quicktime/>QuickTime</A> Web site.",
                            "filename": "npqtplugin6.dll"
                        },
                        {
                            "description": "The QuickTime Plugin allows you to view a wide variety of multimedia content in Web pages. For more information, visit the <A HREF=http://www.apple.com/quicktime/>QuickTime</A> Web site.",
                            "filename": "npqtplugin7.dll"
                        },
                        {
                            "description": "Google Update",
                            "filename": "npGoogleUpdate3.dll"
                        },
                        {
                            "description": "iTunes Detector Plug-in",
                            "filename": "npitunes.dll"
                        },
                        {
                            "description": "Inquisit Mozilla Plugin 4.0.8.0",
                            "filename": "npInquisit.dll"
                        },
                        {
                            "description": "Shockwave Flash 16.0 r0",
                            "filename": "NPSWF32_16_0_0_305.dll"
                        }
                    ],
                    "timezone": -330,
                    "colorDepth": 24,
                    "screenWidth": 1440,
                    "geo": {
                        "city": "Bangalore",
                        "region_code": "KA",
                        "region_name": "Karnataka",
                        "ip": "14.99.11.215",
                        "time_zone": "Asia/Kolkata",
                        "longitude": 77.583,
                        "metro_code": 0,
                        "latitude": 12.983,
                        "country_code": "IN",
                        "country_name": "India",
                        "zip_code": ""
                    },
                    "browser": "Mozilla/5.0 (Windows NT 6.1) AppleWebKit/537.36 (KHTML, like Gecko) Chrome/38.0.2125.19 Safari/537.36"
                },
                "ethnicity": [
                    "asian_eastAsian",
                    "asian_southAsian",
                    "asian_otherAsian",
                    "nativeAmerican"
                ]
            }
        }
    },
    "AcceptTime": "2015-03-03T09:21:16Z",
    "HITId": "3T8DUCXY0NFS8HJNPUVH4PK7OP69T8",
    "Assignment": "",
    "AssignmentStatus": "Submitted",
    "SubmitTime": "2015-03-03T09:57:56Z"
}