{
    "AutoApprovalTime": "2015-03-03T10:00:08Z",
    "AssignmentId": "3X3OR7WPZ096XJQ11VSD7MBYNKTL8S",
    "WorkerId": "A3B3WH3NMJWLG4",
    "answers": {
        "data": {
            "trials": [],
            "condition": "feelings",
            "allData": {
                "education": "college_bachDegree",
                "englishNative": "no",
                "trialData": [
                    {
                        "rt": 4836,
                        "swatch": "BI2A00022",
                        "trialNum": 1,
                        "response": "probably no",
                        "responseCoded": -2
                    },
                    {
                        "rt": 23137,
                        "swatch": "BI2A00046",
                        "trialNum": 2,
                        "response": "probably no",
                        "responseCoded": -2
                    },
                    {
                        "rt": 5061,
                        "swatch": "BI2A00029",
                        "trialNum": 3,
                        "response": "probably no",
                        "responseCoded": -2
                    },
                    {
                        "rt": 3278,
                        "swatch": "BI2A00028",
                        "trialNum": 4,
                        "response": "definitely no",
                        "responseCoded": 3
                    },
                    {
                        "rt": 1644,
                        "swatch": "BI2A00004",
                        "trialNum": 5,
                        "response": "definitely no",
                        "responseCoded": 3
                    },
                    {
                        "rt": 4688,
                        "swatch": "BI2A00012",
                        "trialNum": 6,
                        "response": "probably no",
                        "responseCoded": -2
                    },
                    {
                        "rt": 4012,
                        "swatch": "BI2A00034",
                        "trialNum": 7,
                        "response": "definitely no",
                        "responseCoded": 3
                    },
                    {
                        "rt": 2252,
                        "swatch": "BI2A00038",
                        "trialNum": 8,
                        "response": "definitely no",
                        "responseCoded": 3
                    },
                    {
                        "rt": 3459,
                        "swatch": "BI2A00018",
                        "trialNum": 9,
                        "response": "definitely no",
                        "responseCoded": 3
                    },
                    {
                        "rt": 8668,
                        "swatch": "BI2A00043",
                        "trialNum": 10,
                        "response": "definitely no",
                        "responseCoded": 3
                    },
                    {
                        "rt": 2261,
                        "swatch": "BI2A00030",
                        "trialNum": 11,
                        "response": "definitely no",
                        "responseCoded": 3
                    },
                    {
                        "rt": 3706,
                        "swatch": "BI2A00021",
                        "trialNum": 12,
                        "response": "maybe yes",
                        "responseCoded": 1
                    },
                    {
                        "rt": 5790,
                        "swatch": "BI2A00014",
                        "trialNum": 13,
                        "response": "probably no",
                        "responseCoded": -2
                    },
                    {
                        "rt": 5745,
                        "swatch": "BI2A00023",
                        "trialNum": 14,
                        "response": "probably yes",
                        "responseCoded": 2
                    },
                    {
                        "rt": 4773,
                        "swatch": "BI2A00040",
                        "trialNum": 15,
                        "response": "equally yes/no",
                        "responseCoded": 0
                    },
                    {
                        "rt": 3460,
                        "swatch": "BI2A00042",
                        "trialNum": 16,
                        "response": "definitely no",
                        "responseCoded": 3
                    },
                    {
                        "rt": 3203,
                        "swatch": "BI2A00032",
                        "trialNum": 17,
                        "response": "definitely no",
                        "responseCoded": 3
                    },
                    {
                        "rt": 2965,
                        "swatch": "BI2A00009",
                        "trialNum": 18,
                        "response": "maybe no",
                        "responseCoded": -1
                    },
                    {
                        "rt": 3918,
                        "swatch": "BI2A00003",
                        "trialNum": 19,
                        "response": "probably no",
                        "responseCoded": -2
                    },
                    {
                        "rt": 7087,
                        "swatch": "BI2A00027",
                        "trialNum": 20,
                        "response": "probably no",
                        "responseCoded": -2
                    },
                    {
                        "rt": 6830,
                        "swatch": "BI2A00008",
                        "trialNum": 21,
                        "response": "probably no",
                        "responseCoded": -2
                    },
                    {
                        "rt": 2469,
                        "swatch": "BI2A00007",
                        "trialNum": 22,
                        "response": "maybe yes",
                        "responseCoded": 1
                    },
                    {
                        "rt": 6158,
                        "swatch": "BI2A00033",
                        "trialNum": 23,
                        "response": "maybe no",
                        "responseCoded": -1
                    },
                    {
                        "rt": 4852,
                        "swatch": "BI2A00048",
                        "trialNum": 24,
                        "response": "definitely no",
                        "responseCoded": 3
                    },
                    {
                        "rt": 8637,
                        "swatch": "BI2A00016",
                        "trialNum": 25,
                        "response": "maybe no",
                        "responseCoded": -1
                    },
                    {
                        "rt": 4260,
                        "swatch": "BI2A00039",
                        "trialNum": 26,
                        "response": "definitely no",
                        "responseCoded": 3
                    },
                    {
                        "rt": 3709,
                        "swatch": "BI2A00031",
                        "trialNum": 27,
                        "response": "maybe yes",
                        "responseCoded": 1
                    },
                    {
                        "rt": 3157,
                        "swatch": "BI2A00013",
                        "trialNum": 28,
                        "response": "probably no",
                        "responseCoded": -2
                    },
                    {
                        "rt": 4268,
                        "swatch": "BI2A00047",
                        "trialNum": 29,
                        "response": "maybe no",
                        "responseCoded": -1
                    },
                    {
                        "rt": 7526,
                        "swatch": "BI2A00036",
                        "trialNum": 30,
                        "response": "probably no",
                        "responseCoded": -2
                    },
                    {
                        "rt": 2957,
                        "swatch": "BI2A00011",
                        "trialNum": 31,
                        "response": "definitely no",
                        "responseCoded": 3
                    },
                    {
                        "rt": 6261,
                        "swatch": "BI2A00017",
                        "trialNum": 32,
                        "response": "equally yes/no",
                        "responseCoded": 0
                    },
                    {
                        "rt": 4125,
                        "swatch": "BI2A00006",
                        "trialNum": 33,
                        "response": "maybe yes",
                        "responseCoded": 1
                    },
                    {
                        "rt": 3645,
                        "swatch": "BI2A00019",
                        "trialNum": 34,
                        "response": "maybe yes",
                        "responseCoded": 1
                    },
                    {
                        "rt": 5157,
                        "swatch": "BI2A00024",
                        "trialNum": 35,
                        "response": "probably no",
                        "responseCoded": -2
                    },
                    {
                        "rt": 7149,
                        "swatch": "BI2A00001",
                        "trialNum": 36,
                        "response": "maybe no",
                        "responseCoded": -1
                    },
                    {
                        "rt": 4478,
                        "swatch": "BI2A00020",
                        "trialNum": 37,
                        "response": "maybe no",
                        "responseCoded": -1
                    },
                    {
                        "rt": 4575,
                        "swatch": "BI2A00010",
                        "trialNum": 38,
                        "response": "definitely no",
                        "responseCoded": 3
                    },
                    {
                        "rt": 7900,
                        "swatch": "BI2A00026",
                        "trialNum": 39,
                        "response": "probably no",
                        "responseCoded": -2
                    },
                    {
                        "rt": 7198,
                        "swatch": "BI2A00015",
                        "trialNum": 40,
                        "response": "equally yes/no",
                        "responseCoded": 0
                    },
                    {
                        "rt": 6565,
                        "swatch": "BI2A00002",
                        "trialNum": 41,
                        "response": "probably no",
                        "responseCoded": -2
                    },
                    {
                        "rt": 5501,
                        "swatch": "BI2A00025",
                        "trialNum": 42,
                        "response": "probably no",
                        "responseCoded": -2
                    },
                    {
                        "rt": 1758,
                        "swatch": "BI2A00041",
                        "trialNum": 43,
                        "response": "definitely no",
                        "responseCoded": 3
                    },
                    {
                        "rt": 1086,
                        "swatch": "BI2A00035",
                        "trialNum": 44,
                        "response": "definitely no",
                        "responseCoded": 3
                    },
                    {
                        "rt": 5734,
                        "swatch": "BI2A00005",
                        "trialNum": 45,
                        "response": "maybe yes",
                        "responseCoded": 1
                    },
                    {
                        "rt": 2042,
                        "swatch": "BI2A00045",
                        "trialNum": 46,
                        "response": "definitely no",
                        "responseCoded": 3
                    },
                    {
                        "rt": 1278,
                        "swatch": "BI2A00044",
                        "trialNum": 47,
                        "response": "definitely no",
                        "responseCoded": 3
                    },
                    {
                        "rt": 5285,
                        "swatch": "BI2A00037",
                        "trialNum": 48,
                        "response": "probably no",
                        "responseCoded": -2
                    }
                ],
                "gender": "male",
                "age": "31",
                "comments": "Although the images given weren't clear enough, I answered to the best of my abilities. Hope it helps. Thank you.",
                "religion": [
                    "hinduism"
                ],
                "condition": "feelings",
                "fingerprintData": {
                    "ip": "121.247.194.32",
                    "screenHeight": 800,
                    "plugins": [
                        {
                            "description": "Enables Widevine licenses for playback of HTML audio/video content. (version: 1.4.6.758)",
                            "filename": "widevinecdmadapter.dll"
                        },
                        {
                            "description": "Shockwave Flash 16.0 r0",
                            "filename": "pepflashplayer.dll"
                        },
                        {
                            "description": "This plugin allows you to securely access other computers that have been shared with you. To use this plugin you must first install the <a href=\"https://chrome.google.com/remotedesktop\">Chrome Remote Desktop</a> webapp.",
                            "filename": "internal-remoting-viewer"
                        },
                        {
                            "description": "",
                            "filename": "internal-nacl-plugin"
                        },
                        {
                            "description": "",
                            "filename": "pdf.dll"
                        },
                        {
                            "description": "np-mswmp",
                            "filename": "np-mswmp.dll"
                        },
                        {
                            "description": "Adobe PDF Plug-In For Firefox and Netscape \"9.5.5\"",
                            "filename": "nppdf32.dll"
                        },
                        {
                            "description": "NPRuntime Script Plug-in Library for Java(TM) Deploy",
                            "filename": "npDeployJava1.dll"
                        },
                        {
                            "description": "Next Generation Java Plug-in 10.71.2 for Mozilla browsers",
                            "filename": "npjp2.dll"
                        },
                        {
                            "description": "Office Live Update v1.3",
                            "filename": "npOLW.dll"
                        },
                        {
                            "description": "Inquisit Mozilla Plugin 4.0.6.0",
                            "filename": "npInquisit.dll"
                        },
                        {
                            "description": "RealPlayer(tm) LiveConnect-Enabled Plug-In",
                            "filename": "nppl3260.dll"
                        },
                        {
                            "description": "RealJukebox Netscape Plugin",
                            "filename": "nprjplug.dll"
                        },
                        {
                            "description": "12.0.1.666",
                            "filename": "nprpjplug.dll"
                        },
                        {
                            "description": "NPWLPG",
                            "filename": "NPWLPG.dll"
                        },
                        {
                            "description": "iTunes Detector Plug-in",
                            "filename": "npitunes.dll"
                        },
                        {
                            "description": "RealNetworks(tm) RealPlayer Chrome Background Extension Plug-In",
                            "filename": "nprpchromebrowserrecordext.dll"
                        },
                        {
                            "description": "RealPlayer(tm) HTML5VideoShim Plug-In",
                            "filename": "nprphtml5videoshim.dll"
                        },
                        {
                            "description": "Facebook Video Calling Plugin",
                            "filename": "npFacebookVideoCalling.dll"
                        },
                        {
                            "description": "Google Update",
                            "filename": "npGoogleUpdate3.dll"
                        },
                        {
                            "description": "Version 5.40.2.0",
                            "filename": "npgoogletalk.dll"
                        },
                        {
                            "description": "Version 5.40.2.0",
                            "filename": "npo1d.dll"
                        },
                        {
                            "description": "Shockwave Flash 16.0 r0",
                            "filename": "NPSWF32_16_0_0_296.dll"
                        },
                        {
                            "description": "Adobe Shockwave for Director Netscape plug-in, version 11.6.1.629",
                            "filename": "np32dsw.dll"
                        },
                        {
                            "description": "5.1.20913.0",
                            "filename": "npctrl.dll"
                        }
                    ],
                    "timezone": -330,
                    "colorDepth": 24,
                    "screenWidth": 1280,
                    "geo": {
                        "city": "",
                        "region_code": "",
                        "region_name": "",
                        "ip": "121.247.194.32",
                        "time_zone": "Asia/Kolkata",
                        "longitude": 77,
                        "metro_code": 0,
                        "latitude": 20,
                        "country_code": "IN",
                        "country_name": "India",
                        "zip_code": ""
                    },
                    "browser": "Mozilla/5.0 (Windows NT 6.1; WOW64) AppleWebKit/537.36 (KHTML, like Gecko) Chrome/40.0.2214.115 Safari/537.36"
                },
                "ethnicity": [
                    "asian_southAsian"
                ]
            }
        }
    },
    "AcceptTime": "2015-03-03T09:45:15Z",
    "HITId": "3T8DUCXY0NFS8HJNPUVH4PK7OP69T8",
    "Assignment": "",
    "AssignmentStatus": "Submitted",
    "SubmitTime": "2015-03-03T09:55:08Z"
}