{
    "AutoApprovalTime": "2015-03-03T09:16:23Z",
    "AssignmentId": "3X87C8JFV7KZ70LN7Y6E5ZAT9JMQSJ",
    "WorkerId": "A2XI3DX3IJ1TAV",
    "answers": {
        "data": {
            "trials": [],
            "condition": "pain",
            "allData": {
                "education": "grad_degree",
                "englishNative": "no",
                "trialData": [
                    {
                        "rt": 8134,
                        "swatch": "BI2A00029",
                        "trialNum": 1,
                        "response": "definitely no",
                        "responseCoded": 3
                    },
                    {
                        "rt": 8276,
                        "swatch": "BI2A00017",
                        "trialNum": 2,
                        "response": "probably no",
                        "responseCoded": -2
                    },
                    {
                        "rt": 5501,
                        "swatch": "BI2A00010",
                        "trialNum": 3,
                        "response": "probably no",
                        "responseCoded": -2
                    },
                    {
                        "rt": 2598,
                        "swatch": "BI2A00040",
                        "trialNum": 4,
                        "response": "definitely no",
                        "responseCoded": 3
                    },
                    {
                        "rt": 3110,
                        "swatch": "BI2A00044",
                        "trialNum": 5,
                        "response": "probably no",
                        "responseCoded": -2
                    },
                    {
                        "rt": 4940,
                        "swatch": "BI2A00003",
                        "trialNum": 6,
                        "response": "maybe no",
                        "responseCoded": -1
                    },
                    {
                        "rt": 2046,
                        "swatch": "BI2A00030",
                        "trialNum": 7,
                        "response": "probably no",
                        "responseCoded": -2
                    },
                    {
                        "rt": 1750,
                        "swatch": "BI2A00014",
                        "trialNum": 8,
                        "response": "probably no",
                        "responseCoded": -2
                    },
                    {
                        "rt": 2905,
                        "swatch": "BI2A00037",
                        "trialNum": 9,
                        "response": "maybe no",
                        "responseCoded": -1
                    },
                    {
                        "rt": 2533,
                        "swatch": "BI2A00024",
                        "trialNum": 10,
                        "response": "definitely yes",
                        "responseCoded": 3
                    },
                    {
                        "rt": 4300,
                        "swatch": "BI2A00021",
                        "trialNum": 11,
                        "response": "maybe yes",
                        "responseCoded": 1
                    },
                    {
                        "rt": 1845,
                        "swatch": "BI2A00048",
                        "trialNum": 12,
                        "response": "maybe no",
                        "responseCoded": -1
                    },
                    {
                        "rt": 2647,
                        "swatch": "BI2A00046",
                        "trialNum": 13,
                        "response": "maybe yes",
                        "responseCoded": 1
                    },
                    {
                        "rt": 1566,
                        "swatch": "BI2A00016",
                        "trialNum": 14,
                        "response": "definitely no",
                        "responseCoded": 3
                    },
                    {
                        "rt": 2773,
                        "swatch": "BI2A00004",
                        "trialNum": 15,
                        "response": "definitely no",
                        "responseCoded": 3
                    },
                    {
                        "rt": 2118,
                        "swatch": "BI2A00011",
                        "trialNum": 16,
                        "response": "maybe yes",
                        "responseCoded": 1
                    },
                    {
                        "rt": 2751,
                        "swatch": "BI2A00006",
                        "trialNum": 17,
                        "response": "equally yes/no",
                        "responseCoded": 0
                    },
                    {
                        "rt": 1932,
                        "swatch": "BI2A00027",
                        "trialNum": 18,
                        "response": "probably no",
                        "responseCoded": -2
                    },
                    {
                        "rt": 1685,
                        "swatch": "BI2A00031",
                        "trialNum": 19,
                        "response": "maybe no",
                        "responseCoded": -1
                    },
                    {
                        "rt": 3749,
                        "swatch": "BI2A00028",
                        "trialNum": 20,
                        "response": "probably yes",
                        "responseCoded": 2
                    },
                    {
                        "rt": 2110,
                        "swatch": "BI2A00035",
                        "trialNum": 21,
                        "response": "maybe no",
                        "responseCoded": -1
                    },
                    {
                        "rt": 2076,
                        "swatch": "BI2A00020",
                        "trialNum": 22,
                        "response": "definitely no",
                        "responseCoded": 3
                    },
                    {
                        "rt": 3278,
                        "swatch": "BI2A00034",
                        "trialNum": 23,
                        "response": "maybe yes",
                        "responseCoded": 1
                    },
                    {
                        "rt": 1926,
                        "swatch": "BI2A00026",
                        "trialNum": 24,
                        "response": "maybe yes",
                        "responseCoded": 1
                    },
                    {
                        "rt": 2182,
                        "swatch": "BI2A00038",
                        "trialNum": 25,
                        "response": "maybe no",
                        "responseCoded": -1
                    },
                    {
                        "rt": 3150,
                        "swatch": "BI2A00007",
                        "trialNum": 26,
                        "response": "probably no",
                        "responseCoded": -2
                    },
                    {
                        "rt": 2045,
                        "swatch": "BI2A00005",
                        "trialNum": 27,
                        "response": "probably no",
                        "responseCoded": -2
                    },
                    {
                        "rt": 1499,
                        "swatch": "BI2A00043",
                        "trialNum": 28,
                        "response": "definitely no",
                        "responseCoded": 3
                    },
                    {
                        "rt": 1627,
                        "swatch": "BI2A00013",
                        "trialNum": 29,
                        "response": "definitely no",
                        "responseCoded": 3
                    },
                    {
                        "rt": 2703,
                        "swatch": "BI2A00022",
                        "trialNum": 30,
                        "response": "equally yes/no",
                        "responseCoded": 0
                    },
                    {
                        "rt": 2213,
                        "swatch": "BI2A00015",
                        "trialNum": 31,
                        "response": "maybe no",
                        "responseCoded": -1
                    },
                    {
                        "rt": 1542,
                        "swatch": "BI2A00045",
                        "trialNum": 32,
                        "response": "maybe yes",
                        "responseCoded": 1
                    },
                    {
                        "rt": 1534,
                        "swatch": "BI2A00002",
                        "trialNum": 33,
                        "response": "probably no",
                        "responseCoded": -2
                    },
                    {
                        "rt": 1903,
                        "swatch": "BI2A00001",
                        "trialNum": 34,
                        "response": "equally yes/no",
                        "responseCoded": 0
                    },
                    {
                        "rt": 3127,
                        "swatch": "BI2A00025",
                        "trialNum": 35,
                        "response": "probably yes",
                        "responseCoded": 2
                    },
                    {
                        "rt": 3333,
                        "swatch": "BI2A00036",
                        "trialNum": 36,
                        "response": "maybe no",
                        "responseCoded": -1
                    },
                    {
                        "rt": 3566,
                        "swatch": "BI2A00039",
                        "trialNum": 37,
                        "response": "definitely yes",
                        "responseCoded": 3
                    },
                    {
                        "rt": 4311,
                        "swatch": "BI2A00012",
                        "trialNum": 38,
                        "response": "maybe no",
                        "responseCoded": -1
                    },
                    {
                        "rt": 3789,
                        "swatch": "BI2A00042",
                        "trialNum": 39,
                        "response": "maybe no",
                        "responseCoded": -1
                    },
                    {
                        "rt": 2135,
                        "swatch": "BI2A00033",
                        "trialNum": 40,
                        "response": "probably yes",
                        "responseCoded": 2
                    },
                    {
                        "rt": 2334,
                        "swatch": "BI2A00023",
                        "trialNum": 41,
                        "response": "maybe yes",
                        "responseCoded": 1
                    },
                    {
                        "rt": 1694,
                        "swatch": "BI2A00008",
                        "trialNum": 42,
                        "response": "probably no",
                        "responseCoded": -2
                    },
                    {
                        "rt": 2491,
                        "swatch": "BI2A00041",
                        "trialNum": 43,
                        "response": "probably no",
                        "responseCoded": -2
                    },
                    {
                        "rt": 3470,
                        "swatch": "BI2A00019",
                        "trialNum": 44,
                        "response": "maybe yes",
                        "responseCoded": 1
                    },
                    {
                        "rt": 2092,
                        "swatch": "BI2A00032",
                        "trialNum": 45,
                        "response": "probably yes",
                        "responseCoded": 2
                    },
                    {
                        "rt": 1703,
                        "swatch": "BI2A00009",
                        "trialNum": 46,
                        "response": "probably no",
                        "responseCoded": -2
                    },
                    {
                        "rt": 2076,
                        "swatch": "BI2A00047",
                        "trialNum": 47,
                        "response": "equally yes/no",
                        "responseCoded": 0
                    },
                    {
                        "rt": 1767,
                        "swatch": "BI2A00018",
                        "trialNum": 48,
                        "response": "maybe yes",
                        "responseCoded": 1
                    }
                ],
                "gender": "female",
                "age": "33",
                "comments": "",
                "religion": [
                    "hinduism"
                ],
                "condition": "pain",
                "fingerprintData": {
                    "ip": "101.222.186.62",
                    "screenHeight": 768,
                    "plugins": [
                        {
                            "description": "Enables Widevine licenses for playback of HTML audio/video content. (version: 1.4.6.758)",
                            "filename": "widevinecdmadapter.dll"
                        },
                        {
                            "description": "Shockwave Flash 16.0 r0",
                            "filename": "pepflashplayer.dll"
                        },
                        {
                            "description": "This plugin allows you to securely access other computers that have been shared with you. To use this plugin you must first install the <a href=\"https://chrome.google.com/remotedesktop\">Chrome Remote Desktop</a> webapp.",
                            "filename": "internal-remoting-viewer"
                        },
                        {
                            "description": "",
                            "filename": "internal-nacl-plugin"
                        },
                        {
                            "description": "",
                            "filename": "pdf.dll"
                        },
                        {
                            "description": "Foxit Reader Plug-In For Firefox and Netscape",
                            "filename": "npFoxitReaderPlugin.dll"
                        },
                        {
                            "description": "Google Update",
                            "filename": "npGoogleUpdate3.dll"
                        },
                        {
                            "description": "NPRuntime Script Plug-in Library for Java(TM) Deploy",
                            "filename": "npDeployJava1.dll"
                        },
                        {
                            "description": "Next Generation Java Plug-in 11.31.2 for Mozilla browsers",
                            "filename": "npjp2.dll"
                        },
                        {
                            "description": "5.1.30514.0",
                            "filename": "npctrl.dll"
                        },
                        {
                            "description": "RealPlayer(tm) LiveConnect-Enabled Plug-In",
                            "filename": "nppl3260.dll"
                        },
                        {
                            "description": "RealJukebox Netscape Plugin",
                            "filename": "nprjplug.dll"
                        },
                        {
                            "description": "RealPlayer Download Plugin",
                            "filename": "nprpplugin.dll"
                        },
                        {
                            "description": "VLC media player Web Plugin 2.0.0",
                            "filename": "npvlc.dll"
                        },
                        {
                            "description": "RealNetworks(tm) RealPlayer Chrome Background Extension Plug-In",
                            "filename": "nprpchromebrowserrecordext.dll"
                        },
                        {
                            "description": "RealPlayer(tm) HTML5VideoShim Plug-In",
                            "filename": "nprphtml5videoshim.dll"
                        },
                        {
                            "description": "Shockwave Flash 16.0 r0",
                            "filename": "NPSWF32_16_0_0_305.dll"
                        }
                    ],
                    "timezone": -330,
                    "colorDepth": 24,
                    "screenWidth": 1366,
                    "geo": {
                        "city": "Kolkata",
                        "region_code": "WB",
                        "region_name": "West Bengal",
                        "ip": "101.222.186.62",
                        "time_zone": "Asia/Kolkata",
                        "longitude": 88.37,
                        "metro_code": 0,
                        "latitude": 22.57,
                        "country_code": "IN",
                        "country_name": "India",
                        "zip_code": ""
                    },
                    "browser": "Mozilla/5.0 (Windows NT 6.1) AppleWebKit/537.36 (KHTML, like Gecko) Chrome/40.0.2214.115 Safari/537.36"
                },
                "ethnicity": [
                    "asian_southAsian"
                ]
            }
        }
    },
    "AcceptTime": "2015-03-03T09:05:30Z",
    "HITId": "3T8DUCXY0NFS8HJNPUVH4PK7OP69T8",
    "Assignment": "",
    "AssignmentStatus": "Submitted",
    "SubmitTime": "2015-03-03T09:11:23Z"
}