{
    "AutoApprovalTime": "2015-03-03T09:32:21Z",
    "AssignmentId": "3XM0HYN6NL8DX5FQ6Q7KGDG43WREPF",
    "WorkerId": "A1WF1X8PQQJ2OQ",
    "answers": {
        "data": {
            "trials": [],
            "condition": "think",
            "allData": {
                "education": "college_bachDegree",
                "englishNative": "no",
                "trialData": [
                    {
                        "rt": 30190,
                        "swatch": "BI2A00029",
                        "trialNum": 1,
                        "response": "probably yes",
                        "responseCoded": 2
                    },
                    {
                        "rt": 3835,
                        "swatch": "BI2A00011",
                        "trialNum": 2,
                        "response": "definitely yes",
                        "responseCoded": 3
                    },
                    {
                        "rt": 4650,
                        "swatch": "BI2A00030",
                        "trialNum": 3,
                        "response": "definitely no",
                        "responseCoded": 3
                    },
                    {
                        "rt": 2326,
                        "swatch": "BI2A00005",
                        "trialNum": 4,
                        "response": "definitely yes",
                        "responseCoded": 3
                    },
                    {
                        "rt": 4768,
                        "swatch": "BI2A00016",
                        "trialNum": 5,
                        "response": "definitely yes",
                        "responseCoded": 3
                    },
                    {
                        "rt": 1265,
                        "swatch": "BI2A00024",
                        "trialNum": 6,
                        "response": "definitely yes",
                        "responseCoded": 3
                    },
                    {
                        "rt": 2098,
                        "swatch": "BI2A00010",
                        "trialNum": 7,
                        "response": "definitely yes",
                        "responseCoded": 3
                    },
                    {
                        "rt": 2179,
                        "swatch": "BI2A00021",
                        "trialNum": 8,
                        "response": "definitely no",
                        "responseCoded": 3
                    },
                    {
                        "rt": 1691,
                        "swatch": "BI2A00004",
                        "trialNum": 9,
                        "response": "definitely yes",
                        "responseCoded": 3
                    },
                    {
                        "rt": 1250,
                        "swatch": "BI2A00007",
                        "trialNum": 10,
                        "response": "definitely yes",
                        "responseCoded": 3
                    },
                    {
                        "rt": 1139,
                        "swatch": "BI2A00009",
                        "trialNum": 11,
                        "response": "definitely yes",
                        "responseCoded": 3
                    },
                    {
                        "rt": 6383,
                        "swatch": "BI2A00037",
                        "trialNum": 12,
                        "response": "probably no",
                        "responseCoded": -2
                    },
                    {
                        "rt": 3519,
                        "swatch": "BI2A00046",
                        "trialNum": 13,
                        "response": "definitely yes",
                        "responseCoded": 3
                    },
                    {
                        "rt": 11417,
                        "swatch": "BI2A00022",
                        "trialNum": 14,
                        "response": "maybe no",
                        "responseCoded": -1
                    },
                    {
                        "rt": 2995,
                        "swatch": "BI2A00019",
                        "trialNum": 15,
                        "response": "definitely yes",
                        "responseCoded": 3
                    },
                    {
                        "rt": 1667,
                        "swatch": "BI2A00041",
                        "trialNum": 16,
                        "response": "definitely yes",
                        "responseCoded": 3
                    },
                    {
                        "rt": 2083,
                        "swatch": "BI2A00044",
                        "trialNum": 17,
                        "response": "definitely yes",
                        "responseCoded": 3
                    },
                    {
                        "rt": 1834,
                        "swatch": "BI2A00047",
                        "trialNum": 18,
                        "response": "definitely yes",
                        "responseCoded": 3
                    },
                    {
                        "rt": 2348,
                        "swatch": "BI2A00020",
                        "trialNum": 19,
                        "response": "definitely yes",
                        "responseCoded": 3
                    },
                    {
                        "rt": 1052,
                        "swatch": "BI2A00045",
                        "trialNum": 20,
                        "response": "definitely yes",
                        "responseCoded": 3
                    },
                    {
                        "rt": 6491,
                        "swatch": "BI2A00043",
                        "trialNum": 21,
                        "response": "maybe no",
                        "responseCoded": -1
                    },
                    {
                        "rt": 1878,
                        "swatch": "BI2A00015",
                        "trialNum": 22,
                        "response": "definitely yes",
                        "responseCoded": 3
                    },
                    {
                        "rt": 1239,
                        "swatch": "BI2A00013",
                        "trialNum": 23,
                        "response": "definitely yes",
                        "responseCoded": 3
                    },
                    {
                        "rt": 2786,
                        "swatch": "BI2A00028",
                        "trialNum": 24,
                        "response": "equally yes/no",
                        "responseCoded": 0
                    },
                    {
                        "rt": 3474,
                        "swatch": "BI2A00033",
                        "trialNum": 25,
                        "response": "equally yes/no",
                        "responseCoded": 0
                    },
                    {
                        "rt": 1675,
                        "swatch": "BI2A00025",
                        "trialNum": 26,
                        "response": "definitely yes",
                        "responseCoded": 3
                    },
                    {
                        "rt": 1835,
                        "swatch": "BI2A00026",
                        "trialNum": 27,
                        "response": "definitely yes",
                        "responseCoded": 3
                    },
                    {
                        "rt": 1354,
                        "swatch": "BI2A00031",
                        "trialNum": 28,
                        "response": "definitely yes",
                        "responseCoded": 3
                    },
                    {
                        "rt": 2163,
                        "swatch": "BI2A00012",
                        "trialNum": 29,
                        "response": "definitely yes",
                        "responseCoded": 3
                    },
                    {
                        "rt": 1763,
                        "swatch": "BI2A00039",
                        "trialNum": 30,
                        "response": "definitely yes",
                        "responseCoded": 3
                    },
                    {
                        "rt": 2647,
                        "swatch": "BI2A00035",
                        "trialNum": 31,
                        "response": "definitely yes",
                        "responseCoded": 3
                    },
                    {
                        "rt": 3096,
                        "swatch": "BI2A00014",
                        "trialNum": 32,
                        "response": "equally yes/no",
                        "responseCoded": 0
                    },
                    {
                        "rt": 1897,
                        "swatch": "BI2A00008",
                        "trialNum": 33,
                        "response": "definitely yes",
                        "responseCoded": 3
                    },
                    {
                        "rt": 3402,
                        "swatch": "BI2A00017",
                        "trialNum": 34,
                        "response": "maybe no",
                        "responseCoded": -1
                    },
                    {
                        "rt": 2459,
                        "swatch": "BI2A00036",
                        "trialNum": 35,
                        "response": "definitely yes",
                        "responseCoded": 3
                    },
                    {
                        "rt": 1827,
                        "swatch": "BI2A00003",
                        "trialNum": 36,
                        "response": "definitely yes",
                        "responseCoded": 3
                    },
                    {
                        "rt": 1059,
                        "swatch": "BI2A00006",
                        "trialNum": 37,
                        "response": "definitely yes",
                        "responseCoded": 3
                    },
                    {
                        "rt": 1851,
                        "swatch": "BI2A00023",
                        "trialNum": 38,
                        "response": "definitely yes",
                        "responseCoded": 3
                    },
                    {
                        "rt": 1699,
                        "swatch": "BI2A00040",
                        "trialNum": 39,
                        "response": "definitely yes",
                        "responseCoded": 3
                    },
                    {
                        "rt": 1259,
                        "swatch": "BI2A00001",
                        "trialNum": 40,
                        "response": "definitely yes",
                        "responseCoded": 3
                    },
                    {
                        "rt": 2273,
                        "swatch": "BI2A00032",
                        "trialNum": 41,
                        "response": "equally yes/no",
                        "responseCoded": 0
                    },
                    {
                        "rt": 2152,
                        "swatch": "BI2A00048",
                        "trialNum": 42,
                        "response": "definitely yes",
                        "responseCoded": 3
                    },
                    {
                        "rt": 1395,
                        "swatch": "BI2A00002",
                        "trialNum": 43,
                        "response": "definitely yes",
                        "responseCoded": 3
                    },
                    {
                        "rt": 4407,
                        "swatch": "BI2A00018",
                        "trialNum": 44,
                        "response": "maybe yes",
                        "responseCoded": 1
                    },
                    {
                        "rt": 2527,
                        "swatch": "BI2A00034",
                        "trialNum": 45,
                        "response": "maybe yes",
                        "responseCoded": 1
                    },
                    {
                        "rt": 2385,
                        "swatch": "BI2A00038",
                        "trialNum": 46,
                        "response": "equally yes/no",
                        "responseCoded": 0
                    },
                    {
                        "rt": 2699,
                        "swatch": "BI2A00042",
                        "trialNum": 47,
                        "response": "definitely yes",
                        "responseCoded": 3
                    },
                    {
                        "rt": 2907,
                        "swatch": "BI2A00027",
                        "trialNum": 48,
                        "response": "equally yes/no",
                        "responseCoded": 0
                    }
                ],
                "gender": "male",
                "age": "48",
                "comments": "no",
                "religion": [
                    "hinduism"
                ],
                "condition": "think",
                "fingerprintData": {
                    "ip": "103.240.99.229",
                    "screenHeight": 768,
                    "plugins": [
                        {
                            "description": "Google Update",
                            "filename": "npGoogleUpdate3.dll"
                        },
                        {
                            "description": "Next Generation Java Plug-in 11.31.2 for Mozilla browsers",
                            "filename": "npjp2.dll"
                        },
                        {
                            "description": "K7 Web Protection Browser Extension",
                            "filename": "npK7SRNPExt.dll"
                        },
                        {
                            "description": "Shockwave Flash 16.0 r0",
                            "filename": "NPSWF32_16_0_0_305.dll"
                        }
                    ],
                    "timezone": -330,
                    "colorDepth": 24,
                    "screenWidth": 1366,
                    "geo": {
                        "city": "Kolkata",
                        "region_code": "WB",
                        "region_name": "West Bengal",
                        "ip": "103.240.99.229",
                        "time_zone": "Asia/Kolkata",
                        "longitude": 88.37,
                        "metro_code": 0,
                        "latitude": 22.57,
                        "country_code": "IN",
                        "country_name": "India",
                        "zip_code": ""
                    },
                    "browser": "Mozilla/5.0 (Windows NT 6.1; rv:35.0) Gecko/20100101 Firefox/35.0"
                },
                "ethnicity": [
                    "asian_southAsian"
                ]
            }
        }
    },
    "AcceptTime": "2015-03-03T09:18:02Z",
    "HITId": "3T8DUCXY0NFS8HJNPUVH4PK7OP69T8",
    "Assignment": "",
    "AssignmentStatus": "Submitted",
    "SubmitTime": "2015-03-03T09:27:21Z"
}