{
    "AutoApprovalTime": "2015-03-03T09:46:52Z",
    "AssignmentId": "3XUHV3NRVL7LO5O9CC6C3A804CIH5C",
    "WorkerId": "A3880C79GIH7BP",
    "answers": {
        "data": {
            "trials": [],
            "condition": "think",
            "allData": {
                "education": "college_bachDegree",
                "englishNative": "no",
                "trialData": [
                    {
                        "rt": 15131,
                        "swatch": "BI2A00041",
                        "trialNum": 1,
                        "response": "maybe yes",
                        "responseCoded": 1
                    },
                    {
                        "rt": 9947,
                        "swatch": "BI2A00039",
                        "trialNum": 2,
                        "response": "probably yes",
                        "responseCoded": 2
                    },
                    {
                        "rt": 7629,
                        "swatch": "BI2A00020",
                        "trialNum": 3,
                        "response": "definitely yes",
                        "responseCoded": 3
                    },
                    {
                        "rt": 7191,
                        "swatch": "BI2A00015",
                        "trialNum": 4,
                        "response": "definitely yes",
                        "responseCoded": 3
                    },
                    {
                        "rt": 4784,
                        "swatch": "BI2A00046",
                        "trialNum": 5,
                        "response": "probably yes",
                        "responseCoded": 2
                    },
                    {
                        "rt": 6483,
                        "swatch": "BI2A00023",
                        "trialNum": 6,
                        "response": "probably yes",
                        "responseCoded": 2
                    },
                    {
                        "rt": 3069,
                        "swatch": "BI2A00033",
                        "trialNum": 7,
                        "response": "probably yes",
                        "responseCoded": 2
                    },
                    {
                        "rt": 6523,
                        "swatch": "BI2A00022",
                        "trialNum": 8,
                        "response": "equally yes/no",
                        "responseCoded": 0
                    },
                    {
                        "rt": 7193,
                        "swatch": "BI2A00001",
                        "trialNum": 9,
                        "response": "equally yes/no",
                        "responseCoded": 0
                    },
                    {
                        "rt": 4706,
                        "swatch": "BI2A00004",
                        "trialNum": 10,
                        "response": "equally yes/no",
                        "responseCoded": 0
                    },
                    {
                        "rt": 9365,
                        "swatch": "BI2A00036",
                        "trialNum": 11,
                        "response": "maybe no",
                        "responseCoded": -1
                    },
                    {
                        "rt": 3737,
                        "swatch": "BI2A00005",
                        "trialNum": 12,
                        "response": "maybe no",
                        "responseCoded": -1
                    },
                    {
                        "rt": 3204,
                        "swatch": "BI2A00029",
                        "trialNum": 13,
                        "response": "maybe no",
                        "responseCoded": -1
                    },
                    {
                        "rt": 3883,
                        "swatch": "BI2A00002",
                        "trialNum": 14,
                        "response": "maybe no",
                        "responseCoded": -1
                    },
                    {
                        "rt": 3329,
                        "swatch": "BI2A00037",
                        "trialNum": 15,
                        "response": "maybe yes",
                        "responseCoded": 1
                    },
                    {
                        "rt": 2640,
                        "swatch": "BI2A00003",
                        "trialNum": 16,
                        "response": "maybe yes",
                        "responseCoded": 1
                    },
                    {
                        "rt": 10704,
                        "swatch": "BI2A00042",
                        "trialNum": 17,
                        "response": "equally yes/no",
                        "responseCoded": 0
                    },
                    {
                        "rt": 3921,
                        "swatch": "BI2A00043",
                        "trialNum": 18,
                        "response": "equally yes/no",
                        "responseCoded": 0
                    },
                    {
                        "rt": 2927,
                        "swatch": "BI2A00031",
                        "trialNum": 19,
                        "response": "equally yes/no",
                        "responseCoded": 0
                    },
                    {
                        "rt": 5722,
                        "swatch": "BI2A00034",
                        "trialNum": 20,
                        "response": "equally yes/no",
                        "responseCoded": 0
                    },
                    {
                        "rt": 6775,
                        "swatch": "BI2A00047",
                        "trialNum": 21,
                        "response": "equally yes/no",
                        "responseCoded": 0
                    },
                    {
                        "rt": 3238,
                        "swatch": "BI2A00010",
                        "trialNum": 22,
                        "response": "equally yes/no",
                        "responseCoded": 0
                    },
                    {
                        "rt": 3783,
                        "swatch": "BI2A00017",
                        "trialNum": 23,
                        "response": "maybe yes",
                        "responseCoded": 1
                    },
                    {
                        "rt": 4653,
                        "swatch": "BI2A00018",
                        "trialNum": 24,
                        "response": "maybe yes",
                        "responseCoded": 1
                    },
                    {
                        "rt": 4127,
                        "swatch": "BI2A00038",
                        "trialNum": 25,
                        "response": "probably yes",
                        "responseCoded": 2
                    },
                    {
                        "rt": 3013,
                        "swatch": "BI2A00035",
                        "trialNum": 26,
                        "response": "probably yes",
                        "responseCoded": 2
                    },
                    {
                        "rt": 5149,
                        "swatch": "BI2A00032",
                        "trialNum": 27,
                        "response": "equally yes/no",
                        "responseCoded": 0
                    },
                    {
                        "rt": 4223,
                        "swatch": "BI2A00008",
                        "trialNum": 28,
                        "response": "equally yes/no",
                        "responseCoded": 0
                    },
                    {
                        "rt": 4019,
                        "swatch": "BI2A00007",
                        "trialNum": 29,
                        "response": "equally yes/no",
                        "responseCoded": 0
                    },
                    {
                        "rt": 4632,
                        "swatch": "BI2A00013",
                        "trialNum": 30,
                        "response": "equally yes/no",
                        "responseCoded": 0
                    },
                    {
                        "rt": 3286,
                        "swatch": "BI2A00026",
                        "trialNum": 31,
                        "response": "probably yes",
                        "responseCoded": 2
                    },
                    {
                        "rt": 2466,
                        "swatch": "BI2A00006",
                        "trialNum": 32,
                        "response": "probably yes",
                        "responseCoded": 2
                    },
                    {
                        "rt": 4576,
                        "swatch": "BI2A00016",
                        "trialNum": 33,
                        "response": "maybe yes",
                        "responseCoded": 1
                    },
                    {
                        "rt": 3535,
                        "swatch": "BI2A00030",
                        "trialNum": 34,
                        "response": "equally yes/no",
                        "responseCoded": 0
                    },
                    {
                        "rt": 4968,
                        "swatch": "BI2A00012",
                        "trialNum": 35,
                        "response": "equally yes/no",
                        "responseCoded": 0
                    },
                    {
                        "rt": 5106,
                        "swatch": "BI2A00044",
                        "trialNum": 36,
                        "response": "equally yes/no",
                        "responseCoded": 0
                    },
                    {
                        "rt": 5629,
                        "swatch": "BI2A00040",
                        "trialNum": 37,
                        "response": "equally yes/no",
                        "responseCoded": 0
                    },
                    {
                        "rt": 3214,
                        "swatch": "BI2A00009",
                        "trialNum": 38,
                        "response": "equally yes/no",
                        "responseCoded": 0
                    },
                    {
                        "rt": 2924,
                        "swatch": "BI2A00021",
                        "trialNum": 39,
                        "response": "equally yes/no",
                        "responseCoded": 0
                    },
                    {
                        "rt": 3513,
                        "swatch": "BI2A00019",
                        "trialNum": 40,
                        "response": "equally yes/no",
                        "responseCoded": 0
                    },
                    {
                        "rt": 3545,
                        "swatch": "BI2A00011",
                        "trialNum": 41,
                        "response": "equally yes/no",
                        "responseCoded": 0
                    },
                    {
                        "rt": 4566,
                        "swatch": "BI2A00028",
                        "trialNum": 42,
                        "response": "maybe yes",
                        "responseCoded": 1
                    },
                    {
                        "rt": 2675,
                        "swatch": "BI2A00045",
                        "trialNum": 43,
                        "response": "probably yes",
                        "responseCoded": 2
                    },
                    {
                        "rt": 3976,
                        "swatch": "BI2A00024",
                        "trialNum": 44,
                        "response": "probably yes",
                        "responseCoded": 2
                    },
                    {
                        "rt": 3434,
                        "swatch": "BI2A00014",
                        "trialNum": 45,
                        "response": "probably yes",
                        "responseCoded": 2
                    },
                    {
                        "rt": 3179,
                        "swatch": "BI2A00027",
                        "trialNum": 46,
                        "response": "probably yes",
                        "responseCoded": 2
                    },
                    {
                        "rt": 3740,
                        "swatch": "BI2A00025",
                        "trialNum": 47,
                        "response": "probably yes",
                        "responseCoded": 2
                    },
                    {
                        "rt": 4960,
                        "swatch": "BI2A00048",
                        "trialNum": 48,
                        "response": "equally yes/no",
                        "responseCoded": 0
                    }
                ],
                "gender": "female",
                "age": "44",
                "comments": "The study was very interesting.It give me a good experience of my childhood days and village related life.It give me a good what can I say?I cannot describe that experience in words.",
                "religion": [
                    "hinduism"
                ],
                "condition": "think",
                "fingerprintData": {
                    "ip": "163.47.15.127",
                    "screenHeight": 720,
                    "plugins": [
                        {
                            "description": "Adobe PDF Plug-In For Firefox and Netscape 11.0.07",
                            "filename": "nppdf32.dll"
                        },
                        {
                            "description": "Adobe PDF Plug-In For Firefox and Netscape 11.0.07",
                            "filename": "nppdf32.dll"
                        },
                        {
                            "description": "Google Update",
                            "filename": "npGoogleUpdate3.dll"
                        },
                        {
                            "description": "Office Authorization plug-in for NPAPI browsers",
                            "filename": "NPAUTHZ.DLL"
                        },
                        {
                            "description": "The plug-in allows you to open and edit files using Microsoft Office applications",
                            "filename": "NPSPWRAP.DLL"
                        },
                        {
                            "description": "Picasa plugin",
                            "filename": "npPicasa3.dll"
                        },
                        {
                            "description": "Shockwave Flash 16.0 r0",
                            "filename": "NPSWF32_16_0_0_305.dll"
                        },
                        {
                            "description": "VLC media player Web Plugin 2.0.6",
                            "filename": "npvlc.dll"
                        }
                    ],
                    "timezone": -330,
                    "colorDepth": 24,
                    "screenWidth": 1280,
                    "geo": {
                        "city": "",
                        "region_code": "",
                        "region_name": "",
                        "ip": "163.47.15.127",
                        "time_zone": "Asia/Kolkata",
                        "longitude": 77,
                        "metro_code": 0,
                        "latitude": 20,
                        "country_code": "IN",
                        "country_name": "India",
                        "zip_code": ""
                    },
                    "browser": "Mozilla/5.0 (Windows NT 6.1; rv:35.0) Gecko/20100101 Firefox/35.0"
                },
                "ethnicity": [
                    "asian_southAsian"
                ]
            }
        }
    },
    "AcceptTime": "2015-03-03T09:18:37Z",
    "HITId": "3T8DUCXY0NFS8HJNPUVH4PK7OP69T8",
    "Assignment": "",
    "AssignmentStatus": "Submitted",
    "SubmitTime": "2015-03-03T09:41:52Z"
}