{
    "AutoApprovalTime": "2015-03-03T09:45:36Z",
    "AssignmentId": "3Y54SXRO1MUSET5JD7V9P534EN6TUG",
    "WorkerId": "A3468LXZ1JW2GJ",
    "answers": {
        "data": {
            "trials": [],
            "condition": "think",
            "allData": {
                "education": "grad_degree",
                "englishNative": "yes_only",
                "trialData": [
                    {
                        "rt": 10291,
                        "swatch": "BI2A00039",
                        "trialNum": 1,
                        "response": "definitely no",
                        "responseCoded": 3
                    },
                    {
                        "rt": 8725,
                        "swatch": "BI2A00010",
                        "trialNum": 2,
                        "response": "probably no",
                        "responseCoded": -2
                    },
                    {
                        "rt": 4378,
                        "swatch": "BI2A00016",
                        "trialNum": 3,
                        "response": "probably no",
                        "responseCoded": -2
                    },
                    {
                        "rt": 1243,
                        "swatch": "BI2A00027",
                        "trialNum": 4,
                        "response": "maybe no",
                        "responseCoded": -1
                    },
                    {
                        "rt": 1473,
                        "swatch": "BI2A00043",
                        "trialNum": 5,
                        "response": "probably no",
                        "responseCoded": -2
                    },
                    {
                        "rt": 1642,
                        "swatch": "BI2A00044",
                        "trialNum": 6,
                        "response": "definitely no",
                        "responseCoded": 3
                    },
                    {
                        "rt": 1436,
                        "swatch": "BI2A00040",
                        "trialNum": 7,
                        "response": "definitely no",
                        "responseCoded": 3
                    },
                    {
                        "rt": 1149,
                        "swatch": "BI2A00029",
                        "trialNum": 8,
                        "response": "definitely no",
                        "responseCoded": 3
                    },
                    {
                        "rt": 900,
                        "swatch": "BI2A00037",
                        "trialNum": 9,
                        "response": "probably no",
                        "responseCoded": -2
                    },
                    {
                        "rt": 3107,
                        "swatch": "BI2A00025",
                        "trialNum": 10,
                        "response": "equally yes/no",
                        "responseCoded": 0
                    },
                    {
                        "rt": 1147,
                        "swatch": "BI2A00009",
                        "trialNum": 11,
                        "response": "equally yes/no",
                        "responseCoded": 0
                    },
                    {
                        "rt": 868,
                        "swatch": "BI2A00007",
                        "trialNum": 12,
                        "response": "equally yes/no",
                        "responseCoded": 0
                    },
                    {
                        "rt": 1074,
                        "swatch": "BI2A00041",
                        "trialNum": 13,
                        "response": "maybe no",
                        "responseCoded": -1
                    },
                    {
                        "rt": 1032,
                        "swatch": "BI2A00020",
                        "trialNum": 14,
                        "response": "probably no",
                        "responseCoded": -2
                    },
                    {
                        "rt": 1596,
                        "swatch": "BI2A00002",
                        "trialNum": 15,
                        "response": "probably no",
                        "responseCoded": -2
                    },
                    {
                        "rt": 1157,
                        "swatch": "BI2A00048",
                        "trialNum": 16,
                        "response": "maybe no",
                        "responseCoded": -1
                    },
                    {
                        "rt": 1667,
                        "swatch": "BI2A00042",
                        "trialNum": 17,
                        "response": "definitely no",
                        "responseCoded": 3
                    },
                    {
                        "rt": 1882,
                        "swatch": "BI2A00022",
                        "trialNum": 18,
                        "response": "definitely no",
                        "responseCoded": 3
                    },
                    {
                        "rt": 1108,
                        "swatch": "BI2A00047",
                        "trialNum": 19,
                        "response": "definitely no",
                        "responseCoded": 3
                    },
                    {
                        "rt": 1171,
                        "swatch": "BI2A00015",
                        "trialNum": 20,
                        "response": "probably no",
                        "responseCoded": -2
                    },
                    {
                        "rt": 1018,
                        "swatch": "BI2A00013",
                        "trialNum": 21,
                        "response": "maybe no",
                        "responseCoded": -1
                    },
                    {
                        "rt": 1315,
                        "swatch": "BI2A00028",
                        "trialNum": 22,
                        "response": "probably no",
                        "responseCoded": -2
                    },
                    {
                        "rt": 1155,
                        "swatch": "BI2A00003",
                        "trialNum": 23,
                        "response": "maybe no",
                        "responseCoded": -1
                    },
                    {
                        "rt": 820,
                        "swatch": "BI2A00006",
                        "trialNum": 24,
                        "response": "maybe no",
                        "responseCoded": -1
                    },
                    {
                        "rt": 788,
                        "swatch": "BI2A00004",
                        "trialNum": 25,
                        "response": "maybe no",
                        "responseCoded": -1
                    },
                    {
                        "rt": 800,
                        "swatch": "BI2A00017",
                        "trialNum": 26,
                        "response": "maybe no",
                        "responseCoded": -1
                    },
                    {
                        "rt": 772,
                        "swatch": "BI2A00032",
                        "trialNum": 27,
                        "response": "maybe no",
                        "responseCoded": -1
                    },
                    {
                        "rt": 724,
                        "swatch": "BI2A00014",
                        "trialNum": 28,
                        "response": "maybe no",
                        "responseCoded": -1
                    },
                    {
                        "rt": 826,
                        "swatch": "BI2A00001",
                        "trialNum": 29,
                        "response": "maybe no",
                        "responseCoded": -1
                    },
                    {
                        "rt": 1328,
                        "swatch": "BI2A00026",
                        "trialNum": 30,
                        "response": "maybe yes",
                        "responseCoded": 1
                    },
                    {
                        "rt": 971,
                        "swatch": "BI2A00005",
                        "trialNum": 31,
                        "response": "maybe yes",
                        "responseCoded": 1
                    },
                    {
                        "rt": 1292,
                        "swatch": "BI2A00036",
                        "trialNum": 32,
                        "response": "equally yes/no",
                        "responseCoded": 0
                    },
                    {
                        "rt": 948,
                        "swatch": "BI2A00031",
                        "trialNum": 33,
                        "response": "maybe no",
                        "responseCoded": -1
                    },
                    {
                        "rt": 1532,
                        "swatch": "BI2A00008",
                        "trialNum": 34,
                        "response": "probably yes",
                        "responseCoded": 2
                    },
                    {
                        "rt": 1114,
                        "swatch": "BI2A00012",
                        "trialNum": 35,
                        "response": "probably yes",
                        "responseCoded": 2
                    },
                    {
                        "rt": 1047,
                        "swatch": "BI2A00030",
                        "trialNum": 36,
                        "response": "probably yes",
                        "responseCoded": 2
                    },
                    {
                        "rt": 1629,
                        "swatch": "BI2A00021",
                        "trialNum": 37,
                        "response": "maybe no",
                        "responseCoded": -1
                    },
                    {
                        "rt": 813,
                        "swatch": "BI2A00019",
                        "trialNum": 38,
                        "response": "maybe no",
                        "responseCoded": -1
                    },
                    {
                        "rt": 972,
                        "swatch": "BI2A00023",
                        "trialNum": 39,
                        "response": "probably no",
                        "responseCoded": -2
                    },
                    {
                        "rt": 996,
                        "swatch": "BI2A00018",
                        "trialNum": 40,
                        "response": "maybe no",
                        "responseCoded": -1
                    },
                    {
                        "rt": 1101,
                        "swatch": "BI2A00038",
                        "trialNum": 41,
                        "response": "maybe no",
                        "responseCoded": -1
                    },
                    {
                        "rt": 1108,
                        "swatch": "BI2A00011",
                        "trialNum": 42,
                        "response": "maybe yes",
                        "responseCoded": 1
                    },
                    {
                        "rt": 1044,
                        "swatch": "BI2A00046",
                        "trialNum": 43,
                        "response": "maybe no",
                        "responseCoded": -1
                    },
                    {
                        "rt": 869,
                        "swatch": "BI2A00024",
                        "trialNum": 44,
                        "response": "maybe no",
                        "responseCoded": -1
                    },
                    {
                        "rt": 803,
                        "swatch": "BI2A00035",
                        "trialNum": 45,
                        "response": "maybe no",
                        "responseCoded": -1
                    },
                    {
                        "rt": 1973,
                        "swatch": "BI2A00033",
                        "trialNum": 46,
                        "response": "probably yes",
                        "responseCoded": 2
                    },
                    {
                        "rt": 1061,
                        "swatch": "BI2A00034",
                        "trialNum": 47,
                        "response": "maybe no",
                        "responseCoded": -1
                    },
                    {
                        "rt": 773,
                        "swatch": "BI2A00045",
                        "trialNum": 48,
                        "response": "maybe no",
                        "responseCoded": -1
                    }
                ],
                "gender": "male",
                "age": "26",
                "comments": "",
                "religion": [
                    "hinduism"
                ],
                "condition": "think",
                "fingerprintData": {
                    "ip": "125.17.161.253",
                    "screenHeight": 720,
                    "plugins": [
                        {
                            "description": "Enables Widevine licenses for playback of HTML audio/video content. (version: 1.4.6.758)",
                            "filename": "widevinecdmadapter.dll"
                        },
                        {
                            "description": "Shockwave Flash 16.0 r0",
                            "filename": "pepflashplayer.dll"
                        },
                        {
                            "description": "This plugin allows you to securely access other computers that have been shared with you. To use this plugin you must first install the <a href=\"https://chrome.google.com/remotedesktop\">Chrome Remote Desktop</a> webapp.",
                            "filename": "internal-remoting-viewer"
                        },
                        {
                            "description": "",
                            "filename": "internal-nacl-plugin"
                        },
                        {
                            "description": "",
                            "filename": "pdf.dll"
                        },
                        {
                            "description": "np-mswmp",
                            "filename": "np-mswmp.dll"
                        },
                        {
                            "description": "IBM GLOBAL PRINT PLUGIN VER 4.1",
                            "filename": "npcpsweb.dll"
                        },
                        {
                            "description": "Office Plugin for Netscape Navigator",
                            "filename": "NPOFFICE.DLL"
                        },
                        {
                            "description": "Office Authorization plug-in for NPAPI browsers",
                            "filename": "NPAUTHZ.DLL"
                        },
                        {
                            "description": "The plug-in allows you to open and edit files using Microsoft Office applications",
                            "filename": "NPSPWRAP.DLL"
                        },
                        {
                            "description": "Google Update",
                            "filename": "npGoogleUpdate3.dll"
                        },
                        {
                            "description": "NPRuntime Script Plug-in Library for Java(TM) Deploy",
                            "filename": "npDeployJava1.dll"
                        },
                        {
                            "description": "Next Generation Java Plug-in 10.65.2 for Mozilla browsers",
                            "filename": "npjp2.dll"
                        },
                        {
                            "description": "NVIDIA 3D Vision plugin for Mozilla browsers",
                            "filename": "npnv3dv.dll"
                        },
                        {
                            "description": "NVIDIA 3D Vision Streaming plugin for Mozilla browsers",
                            "filename": "npnv3dvstreaming.dll"
                        },
                        {
                            "description": "Shockwave Flash 15.0 r0",
                            "filename": "NPSWF32_15_0_0_152.dll"
                        }
                    ],
                    "timezone": -330,
                    "colorDepth": 24,
                    "screenWidth": 1280,
                    "geo": {
                        "city": "New Delhi",
                        "region_code": "DL",
                        "region_name": "National Capital Territory of Delhi",
                        "ip": "125.17.161.253",
                        "time_zone": "Asia/Kolkata",
                        "longitude": 77.2,
                        "metro_code": 0,
                        "latitude": 28.6,
                        "country_code": "IN",
                        "country_name": "India",
                        "zip_code": ""
                    },
                    "browser": "Mozilla/5.0 (Windows NT 6.1; WOW64) AppleWebKit/537.36 (KHTML, like Gecko) Chrome/40.0.2214.115 Safari/537.36"
                },
                "ethnicity": [
                    "asian_southAsian"
                ]
            }
        }
    },
    "AcceptTime": "2015-03-03T09:18:59Z",
    "HITId": "3T8DUCXY0NFS8HJNPUVH4PK7OP69T8",
    "Assignment": "",
    "AssignmentStatus": "Submitted",
    "SubmitTime": "2015-03-03T09:40:36Z"
}