{
    "AutoApprovalTime": "2015-03-03T09:47:10Z",
    "AssignmentId": "3ZSY5X72NYKKL98UDWE5QKAX8GLROO",
    "WorkerId": "A3485IQYNO94GA",
    "answers": {
        "data": {
            "trials": [],
            "condition": "feelings",
            "allData": {
                "education": "grad_degree",
                "englishNative": "yes_multiple",
                "trialData": [
                    {
                        "rt": 2042,
                        "swatch": "BI2A00017",
                        "trialNum": 1,
                        "response": "probably yes",
                        "responseCoded": 2
                    },
                    {
                        "rt": 1359,
                        "swatch": "BI2A00003",
                        "trialNum": 2,
                        "response": "probably no",
                        "responseCoded": -2
                    },
                    {
                        "rt": 1803,
                        "swatch": "BI2A00036",
                        "trialNum": 3,
                        "response": "probably no",
                        "responseCoded": -2
                    },
                    {
                        "rt": 1492,
                        "swatch": "BI2A00040",
                        "trialNum": 4,
                        "response": "probably yes",
                        "responseCoded": 2
                    },
                    {
                        "rt": 1271,
                        "swatch": "BI2A00013",
                        "trialNum": 5,
                        "response": "probably no",
                        "responseCoded": -2
                    },
                    {
                        "rt": 3269,
                        "swatch": "BI2A00007",
                        "trialNum": 6,
                        "response": "probably no",
                        "responseCoded": -2
                    },
                    {
                        "rt": 3686,
                        "swatch": "BI2A00018",
                        "trialNum": 7,
                        "response": "probably no",
                        "responseCoded": -2
                    },
                    {
                        "rt": 1488,
                        "swatch": "BI2A00027",
                        "trialNum": 8,
                        "response": "maybe yes",
                        "responseCoded": 1
                    },
                    {
                        "rt": 3756,
                        "swatch": "BI2A00020",
                        "trialNum": 9,
                        "response": "maybe yes",
                        "responseCoded": 1
                    },
                    {
                        "rt": 3693,
                        "swatch": "BI2A00002",
                        "trialNum": 10,
                        "response": "probably yes",
                        "responseCoded": 2
                    },
                    {
                        "rt": 1760,
                        "swatch": "BI2A00022",
                        "trialNum": 11,
                        "response": "equally yes/no",
                        "responseCoded": 0
                    },
                    {
                        "rt": 1752,
                        "swatch": "BI2A00029",
                        "trialNum": 12,
                        "response": "maybe yes",
                        "responseCoded": 1
                    },
                    {
                        "rt": 5170,
                        "swatch": "BI2A00010",
                        "trialNum": 13,
                        "response": "equally yes/no",
                        "responseCoded": 0
                    },
                    {
                        "rt": 4528,
                        "swatch": "BI2A00024",
                        "trialNum": 14,
                        "response": "equally yes/no",
                        "responseCoded": 0
                    },
                    {
                        "rt": 4366,
                        "swatch": "BI2A00011",
                        "trialNum": 15,
                        "response": "maybe no",
                        "responseCoded": -1
                    },
                    {
                        "rt": 1744,
                        "swatch": "BI2A00031",
                        "trialNum": 16,
                        "response": "maybe yes",
                        "responseCoded": 1
                    },
                    {
                        "rt": 1259,
                        "swatch": "BI2A00038",
                        "trialNum": 17,
                        "response": "probably yes",
                        "responseCoded": 2
                    },
                    {
                        "rt": 2776,
                        "swatch": "BI2A00044",
                        "trialNum": 18,
                        "response": "probably yes",
                        "responseCoded": 2
                    },
                    {
                        "rt": 1969,
                        "swatch": "BI2A00004",
                        "trialNum": 19,
                        "response": "equally yes/no",
                        "responseCoded": 0
                    },
                    {
                        "rt": 2003,
                        "swatch": "BI2A00021",
                        "trialNum": 20,
                        "response": "probably no",
                        "responseCoded": -2
                    },
                    {
                        "rt": 1409,
                        "swatch": "BI2A00030",
                        "trialNum": 21,
                        "response": "maybe yes",
                        "responseCoded": 1
                    },
                    {
                        "rt": 1169,
                        "swatch": "BI2A00016",
                        "trialNum": 22,
                        "response": "equally yes/no",
                        "responseCoded": 0
                    },
                    {
                        "rt": 1295,
                        "swatch": "BI2A00028",
                        "trialNum": 23,
                        "response": "probably yes",
                        "responseCoded": 2
                    },
                    {
                        "rt": 4946,
                        "swatch": "BI2A00012",
                        "trialNum": 24,
                        "response": "maybe no",
                        "responseCoded": -1
                    },
                    {
                        "rt": 3776,
                        "swatch": "BI2A00014",
                        "trialNum": 25,
                        "response": "equally yes/no",
                        "responseCoded": 0
                    },
                    {
                        "rt": 4935,
                        "swatch": "BI2A00019",
                        "trialNum": 26,
                        "response": "probably no",
                        "responseCoded": -2
                    },
                    {
                        "rt": 5546,
                        "swatch": "BI2A00005",
                        "trialNum": 27,
                        "response": "definitely no",
                        "responseCoded": 3
                    },
                    {
                        "rt": 1800,
                        "swatch": "BI2A00048",
                        "trialNum": 28,
                        "response": "maybe yes",
                        "responseCoded": 1
                    },
                    {
                        "rt": 1801,
                        "swatch": "BI2A00042",
                        "trialNum": 29,
                        "response": "equally yes/no",
                        "responseCoded": 0
                    },
                    {
                        "rt": 1701,
                        "swatch": "BI2A00037",
                        "trialNum": 30,
                        "response": "equally yes/no",
                        "responseCoded": 0
                    },
                    {
                        "rt": 5593,
                        "swatch": "BI2A00026",
                        "trialNum": 31,
                        "response": "probably no",
                        "responseCoded": -2
                    },
                    {
                        "rt": 2218,
                        "swatch": "BI2A00041",
                        "trialNum": 32,
                        "response": "maybe yes",
                        "responseCoded": 1
                    },
                    {
                        "rt": 4570,
                        "swatch": "BI2A00006",
                        "trialNum": 33,
                        "response": "probably no",
                        "responseCoded": -2
                    },
                    {
                        "rt": 4995,
                        "swatch": "BI2A00039",
                        "trialNum": 34,
                        "response": "probably yes",
                        "responseCoded": 2
                    },
                    {
                        "rt": 4571,
                        "swatch": "BI2A00033",
                        "trialNum": 35,
                        "response": "probably yes",
                        "responseCoded": 2
                    },
                    {
                        "rt": 1885,
                        "swatch": "BI2A00046",
                        "trialNum": 36,
                        "response": "probably yes",
                        "responseCoded": 2
                    },
                    {
                        "rt": 5131,
                        "swatch": "BI2A00015",
                        "trialNum": 37,
                        "response": "maybe yes",
                        "responseCoded": 1
                    },
                    {
                        "rt": 2306,
                        "swatch": "BI2A00043",
                        "trialNum": 38,
                        "response": "definitely yes",
                        "responseCoded": 3
                    },
                    {
                        "rt": 6862,
                        "swatch": "BI2A00009",
                        "trialNum": 39,
                        "response": "equally yes/no",
                        "responseCoded": 0
                    },
                    {
                        "rt": 1680,
                        "swatch": "BI2A00047",
                        "trialNum": 40,
                        "response": "maybe no",
                        "responseCoded": -1
                    },
                    {
                        "rt": 4977,
                        "swatch": "BI2A00023",
                        "trialNum": 41,
                        "response": "probably no",
                        "responseCoded": -2
                    },
                    {
                        "rt": 6594,
                        "swatch": "BI2A00034",
                        "trialNum": 42,
                        "response": "probably no",
                        "responseCoded": -2
                    },
                    {
                        "rt": 4865,
                        "swatch": "BI2A00001",
                        "trialNum": 43,
                        "response": "definitely no",
                        "responseCoded": 3
                    },
                    {
                        "rt": 5418,
                        "swatch": "BI2A00032",
                        "trialNum": 44,
                        "response": "maybe yes",
                        "responseCoded": 1
                    },
                    {
                        "rt": 5019,
                        "swatch": "BI2A00045",
                        "trialNum": 45,
                        "response": "probably yes",
                        "responseCoded": 2
                    },
                    {
                        "rt": 5419,
                        "swatch": "BI2A00008",
                        "trialNum": 46,
                        "response": "definitely no",
                        "responseCoded": 3
                    },
                    {
                        "rt": 7471,
                        "swatch": "BI2A00025",
                        "trialNum": 47,
                        "response": "definitely no",
                        "responseCoded": 3
                    },
                    {
                        "rt": 6091,
                        "swatch": "BI2A00035",
                        "trialNum": 48,
                        "response": "probably yes",
                        "responseCoded": 2
                    }
                ],
                "gender": "female",
                "age": "25",
                "comments": "no",
                "religion": [
                    "hinduism"
                ],
                "condition": "feelings",
                "fingerprintData": {
                    "ip": "183.83.232.244",
                    "screenHeight": 960,
                    "plugins": [
                        {
                            "description": "Adobe PDF Plug-In For Firefox and Netscape 11.0.10",
                            "filename": "nppdf32.dll"
                        },
                        {
                            "description": "Adobe PDF Plug-In For Firefox and Netscape 11.0.10",
                            "filename": "nppdf32.dll"
                        },
                        {
                            "description": "Version 5.40.2.0",
                            "filename": "npgoogletalk.dll"
                        },
                        {
                            "description": "Version 5.40.2.0",
                            "filename": "npo1d.dll"
                        },
                        {
                            "description": "Google Update",
                            "filename": "npGoogleUpdate3.dll"
                        },
                        {
                            "description": "Google Update",
                            "filename": "npGoogleUpdate3.dll"
                        },
                        {
                            "description": "NPRuntime Script Plug-in Library for Java(TM) Deploy",
                            "filename": "npdeployJava1.dll"
                        },
                        {
                            "description": "Next Generation Java Plug-in 11.31.2 for Mozilla browsers",
                            "filename": "npjp2.dll"
                        },
                        {
                            "description": "Shockwave Flash 16.0 r0",
                            "filename": "NPSWF32_16_0_0_305.dll"
                        },
                        {
                            "description": "VLC media player Web Plugin 2.0.2",
                            "filename": "npvlc.dll"
                        }
                    ],
                    "timezone": -330,
                    "colorDepth": 24,
                    "screenWidth": 1708,
                    "geo": {
                        "city": "Hyderabad",
                        "region_code": "",
                        "region_name": "Telangana",
                        "ip": "183.83.232.244",
                        "time_zone": "Asia/Kolkata",
                        "longitude": 78.474,
                        "metro_code": 0,
                        "latitude": 17.375,
                        "country_code": "IN",
                        "country_name": "India",
                        "zip_code": ""
                    },
                    "browser": "Mozilla/5.0 (Windows NT 10.0; WOW64; rv:36.0) Gecko/20100101 Firefox/36.0"
                },
                "ethnicity": [
                    "asian_southAsian"
                ]
            }
        }
    },
    "AcceptTime": "2015-03-03T09:38:29Z",
    "HITId": "3T8DUCXY0NFS8HJNPUVH4PK7OP69T8",
    "Assignment": "",
    "AssignmentStatus": "Submitted",
    "SubmitTime": "2015-03-03T09:42:10Z"
}