{
    "ApprovalTime": "2015-03-03T11:12:36Z",
    "AutoApprovalTime": "2015-03-03T11:09:51Z",
    "AssignmentId": "30LB5CDZNDJ8KJ22LS67MMGEJVP0Z3",
    "WorkerId": "A3OXOYNCOPR23H",
    "answers": {
        "data": {
            "trials": [],
            "condition": "animal",
            "allData": {
                "education": "hs_diploma",
                "englishNative": "yes_only",
                "trialData": [
                    {
                        "rt": 16603,
                        "swatch": "BI2A00015",
                        "trialNum": 1,
                        "response": "probably yes",
                        "responseCoded": 2
                    },
                    {
                        "rt": 9197,
                        "swatch": "BI2A00043",
                        "trialNum": 2,
                        "response": "equally yes/no",
                        "responseCoded": 0
                    },
                    {
                        "rt": 5784,
                        "swatch": "BI2A00037",
                        "trialNum": 3,
                        "response": "probably no",
                        "responseCoded": -2
                    },
                    {
                        "rt": 5868,
                        "swatch": "BI2A00005",
                        "trialNum": 4,
                        "response": "probably yes",
                        "responseCoded": 2
                    },
                    {
                        "rt": 4398,
                        "swatch": "BI2A00040",
                        "trialNum": 5,
                        "response": "probably no",
                        "responseCoded": -2
                    },
                    {
                        "rt": 4152,
                        "swatch": "BI2A00021",
                        "trialNum": 6,
                        "response": "probably no",
                        "responseCoded": -2
                    },
                    {
                        "rt": 4819,
                        "swatch": "BI2A00028",
                        "trialNum": 7,
                        "response": "equally yes/no",
                        "responseCoded": 0
                    },
                    {
                        "rt": 5640,
                        "swatch": "BI2A00025",
                        "trialNum": 8,
                        "response": "equally yes/no",
                        "responseCoded": 0
                    },
                    {
                        "rt": 6307,
                        "swatch": "BI2A00029",
                        "trialNum": 9,
                        "response": "probably no",
                        "responseCoded": -2
                    },
                    {
                        "rt": 7801,
                        "swatch": "BI2A00026",
                        "trialNum": 10,
                        "response": "probably no",
                        "responseCoded": -2
                    },
                    {
                        "rt": 4267,
                        "swatch": "BI2A00041",
                        "trialNum": 11,
                        "response": "definitely no",
                        "responseCoded": 3
                    },
                    {
                        "rt": 8482,
                        "swatch": "BI2A00032",
                        "trialNum": 12,
                        "response": "probably no",
                        "responseCoded": -2
                    },
                    {
                        "rt": 11168,
                        "swatch": "BI2A00018",
                        "trialNum": 13,
                        "response": "probably no",
                        "responseCoded": -2
                    },
                    {
                        "rt": 5885,
                        "swatch": "BI2A00034",
                        "trialNum": 14,
                        "response": "equally yes/no",
                        "responseCoded": 0
                    },
                    {
                        "rt": 3595,
                        "swatch": "BI2A00006",
                        "trialNum": 15,
                        "response": "probably yes",
                        "responseCoded": 2
                    },
                    {
                        "rt": 4504,
                        "swatch": "BI2A00019",
                        "trialNum": 16,
                        "response": "probably yes",
                        "responseCoded": 2
                    },
                    {
                        "rt": 2616,
                        "swatch": "BI2A00004",
                        "trialNum": 17,
                        "response": "probably yes",
                        "responseCoded": 2
                    },
                    {
                        "rt": 4634,
                        "swatch": "BI2A00023",
                        "trialNum": 18,
                        "response": "maybe yes",
                        "responseCoded": 1
                    },
                    {
                        "rt": 5550,
                        "swatch": "BI2A00012",
                        "trialNum": 19,
                        "response": "equally yes/no",
                        "responseCoded": 0
                    },
                    {
                        "rt": 4637,
                        "swatch": "BI2A00003",
                        "trialNum": 20,
                        "response": "probably yes",
                        "responseCoded": 2
                    },
                    {
                        "rt": 2813,
                        "swatch": "BI2A00033",
                        "trialNum": 21,
                        "response": "probably no",
                        "responseCoded": -2
                    },
                    {
                        "rt": 4695,
                        "swatch": "BI2A00010",
                        "trialNum": 22,
                        "response": "probably yes",
                        "responseCoded": 2
                    },
                    {
                        "rt": 5078,
                        "swatch": "BI2A00031",
                        "trialNum": 23,
                        "response": "definitely no",
                        "responseCoded": 3
                    },
                    {
                        "rt": 2550,
                        "swatch": "BI2A00038",
                        "trialNum": 24,
                        "response": "definitely no",
                        "responseCoded": 3
                    },
                    {
                        "rt": 2198,
                        "swatch": "BI2A00035",
                        "trialNum": 25,
                        "response": "definitely no",
                        "responseCoded": 3
                    },
                    {
                        "rt": 3000,
                        "swatch": "BI2A00036",
                        "trialNum": 26,
                        "response": "equally yes/no",
                        "responseCoded": 0
                    },
                    {
                        "rt": 2085,
                        "swatch": "BI2A00048",
                        "trialNum": 27,
                        "response": "definitely no",
                        "responseCoded": 3
                    },
                    {
                        "rt": 3332,
                        "swatch": "BI2A00039",
                        "trialNum": 28,
                        "response": "definitely no",
                        "responseCoded": 3
                    },
                    {
                        "rt": 4315,
                        "swatch": "BI2A00047",
                        "trialNum": 29,
                        "response": "equally yes/no",
                        "responseCoded": 0
                    },
                    {
                        "rt": 2500,
                        "swatch": "BI2A00027",
                        "trialNum": 30,
                        "response": "definitely no",
                        "responseCoded": 3
                    },
                    {
                        "rt": 3585,
                        "swatch": "BI2A00002",
                        "trialNum": 31,
                        "response": "probably yes",
                        "responseCoded": 2
                    },
                    {
                        "rt": 2616,
                        "swatch": "BI2A00001",
                        "trialNum": 32,
                        "response": "equally yes/no",
                        "responseCoded": 0
                    },
                    {
                        "rt": 8800,
                        "swatch": "BI2A00020",
                        "trialNum": 33,
                        "response": "equally yes/no",
                        "responseCoded": 0
                    },
                    {
                        "rt": 2718,
                        "swatch": "BI2A00044",
                        "trialNum": 34,
                        "response": "definitely no",
                        "responseCoded": 3
                    },
                    {
                        "rt": 2416,
                        "swatch": "BI2A00017",
                        "trialNum": 35,
                        "response": "probably no",
                        "responseCoded": -2
                    },
                    {
                        "rt": 6717,
                        "swatch": "BI2A00011",
                        "trialNum": 36,
                        "response": "probably yes",
                        "responseCoded": 2
                    },
                    {
                        "rt": 2938,
                        "swatch": "BI2A00009",
                        "trialNum": 37,
                        "response": "probably yes",
                        "responseCoded": 2
                    },
                    {
                        "rt": 1846,
                        "swatch": "BI2A00008",
                        "trialNum": 38,
                        "response": "probably yes",
                        "responseCoded": 2
                    },
                    {
                        "rt": 2817,
                        "swatch": "BI2A00042",
                        "trialNum": 39,
                        "response": "definitely no",
                        "responseCoded": 3
                    },
                    {
                        "rt": 2419,
                        "swatch": "BI2A00007",
                        "trialNum": 40,
                        "response": "probably yes",
                        "responseCoded": 2
                    },
                    {
                        "rt": 2165,
                        "swatch": "BI2A00046",
                        "trialNum": 41,
                        "response": "definitely no",
                        "responseCoded": 3
                    },
                    {
                        "rt": 3584,
                        "swatch": "BI2A00014",
                        "trialNum": 42,
                        "response": "equally yes/no",
                        "responseCoded": 0
                    },
                    {
                        "rt": 5418,
                        "swatch": "BI2A00016",
                        "trialNum": 43,
                        "response": "probably no",
                        "responseCoded": -2
                    },
                    {
                        "rt": 5466,
                        "swatch": "BI2A00013",
                        "trialNum": 44,
                        "response": "maybe yes",
                        "responseCoded": 1
                    },
                    {
                        "rt": 2001,
                        "swatch": "BI2A00045",
                        "trialNum": 45,
                        "response": "definitely no",
                        "responseCoded": 3
                    },
                    {
                        "rt": 2983,
                        "swatch": "BI2A00022",
                        "trialNum": 46,
                        "response": "equally yes/no",
                        "responseCoded": 0
                    },
                    {
                        "rt": 6400,
                        "swatch": "BI2A00024",
                        "trialNum": 47,
                        "response": "definitely yes",
                        "responseCoded": 3
                    },
                    {
                        "rt": 2447,
                        "swatch": "BI2A00030",
                        "trialNum": 48,
                        "response": "definitely no",
                        "responseCoded": 3
                    }
                ],
                "gender": "male",
                "age": "40",
                "comments": "",
                "religion": [
                    "christianity_catholic"
                ],
                "condition": "animal",
                "fingerprintData": {
                    "ip": "98.196.197.236",
                    "screenHeight": 768,
                    "plugins": [
                        {
                            "description": "Enables Widevine licenses for playback of HTML audio/video content. (version: 1.4.6.758)",
                            "filename": "widevinecdmadapter.dll"
                        },
                        {
                            "description": "Shockwave Flash 16.0 r0",
                            "filename": "pepflashplayer.dll"
                        },
                        {
                            "description": "This plugin allows you to securely access other computers that have been shared with you. To use this plugin you must first install the <a href=\"https://chrome.google.com/remotedesktop\">Chrome Remote Desktop</a> webapp.",
                            "filename": "internal-remoting-viewer"
                        },
                        {
                            "description": "",
                            "filename": "internal-nacl-plugin"
                        },
                        {
                            "description": "",
                            "filename": "pdf.dll"
                        },
                        {
                            "description": "Coupons, Inc. Coupon Printer DLL",
                            "filename": "npCouponPrinter.dll"
                        },
                        {
                            "description": "Coupons, Inc. Coupon Printer Plugin",
                            "filename": "npMozCouponPrinter.dll"
                        },
                        {
                            "description": "The QuickTime Plugin allows you to view a wide variety of multimedia content in Web pages. For more information, visit the <A HREF=http://www.apple.com/quicktime/>QuickTime</A> Web site.",
                            "filename": "npqtplugin.dll"
                        },
                        {
                            "description": "The QuickTime Plugin allows you to view a wide variety of multimedia content in Web pages. For more information, visit the <A HREF=http://www.apple.com/quicktime/>QuickTime</A> Web site.",
                            "filename": "npqtplugin2.dll"
                        },
                        {
                            "description": "The QuickTime Plugin allows you to view a wide variety of multimedia content in Web pages. For more information, visit the <A HREF=http://www.apple.com/quicktime/>QuickTime</A> Web site.",
                            "filename": "npqtplugin3.dll"
                        },
                        {
                            "description": "The QuickTime Plugin allows you to view a wide variety of multimedia content in Web pages. For more information, visit the <A HREF=http://www.apple.com/quicktime/>QuickTime</A> Web site.",
                            "filename": "npqtplugin4.dll"
                        },
                        {
                            "description": "The QuickTime Plugin allows you to view a wide variety of multimedia content in Web pages. For more information, visit the <A HREF=http://www.apple.com/quicktime/>QuickTime</A> Web site.",
                            "filename": "npqtplugin5.dll"
                        },
                        {
                            "description": "The QuickTime Plugin allows you to view a wide variety of multimedia content in Web pages. For more information, visit the <A HREF=http://www.apple.com/quicktime/>QuickTime</A> Web site.",
                            "filename": "npqtplugin6.dll"
                        },
                        {
                            "description": "The QuickTime Plugin allows you to view a wide variety of multimedia content in Web pages. For more information, visit the <A HREF=http://www.apple.com/quicktime/>QuickTime</A> Web site.",
                            "filename": "npqtplugin7.dll"
                        },
                        {
                            "description": "CANON iMAGE GATEWAY Album Plugin Utility Module",
                            "filename": "NPEZFFPI.DLL"
                        },
                        {
                            "description": "Google Update",
                            "filename": "npGoogleUpdate3.dll"
                        },
                        {
                            "description": "5.1.31211.0",
                            "filename": "npctrl.dll"
                        },
                        {
                            "description": "Popular Screensavers Plugin Stub for 32-bit Windows",
                            "filename": "NPp5Stub.dll"
                        },
                        {
                            "description": "Unity Player 4.6.3f1",
                            "filename": "npUnity3D32.dll"
                        },
                        {
                            "description": "Inquisit Mozilla Plugin 4.0.8.0",
                            "filename": "npInquisit.dll"
                        },
                        {
                            "description": "Shockwave Flash 16.0 r0",
                            "filename": "NPSWF32_16_0_0_305.dll"
                        },
                        {
                            "description": "NPRuntime Script Plug-in Library for Java(TM) Deploy",
                            "filename": "npDeployJava1.dll"
                        }
                    ],
                    "timezone": 360,
                    "colorDepth": 24,
                    "screenWidth": 1366,
                    "geo": {
                        "city": "Texas City",
                        "region_code": "TX",
                        "region_name": "Texas",
                        "ip": "98.196.197.236",
                        "time_zone": "America/Chicago",
                        "longitude": -94.903,
                        "metro_code": 618,
                        "latitude": 29.384,
                        "country_code": "US",
                        "country_name": "United States",
                        "zip_code": "77590"
                    },
                    "browser": "Mozilla/5.0 (Windows NT 6.1; WOW64) AppleWebKit/537.36 (KHTML, like Gecko) Chrome/40.0.2214.115 Safari/537.36"
                },
                "ethnicity": [
                    "white"
                ]
            }
        }
    },
    "AcceptTime": "2015-03-03T10:59:31Z",
    "HITId": "39TX062QX1XDAW3RDVV42F2R1TJX3X",
    "Assignment": "",
    "AssignmentStatus": "Approved",
    "SubmitTime": "2015-03-03T11:04:51Z"
}