{
    "ApprovalTime": "2015-03-03T11:22:37Z",
    "AutoApprovalTime": "2015-03-03T11:22:21Z",
    "AssignmentId": "3180JW2OT5LHFBJZ0C9XFNOFH5NJ5M",
    "WorkerId": "A3SI83QHG0L2P1",
    "answers": {
        "data": {
            "trials": [],
            "condition": "think",
            "allData": {
                "education": "college_bachDegree",
                "englishNative": "yes_only",
                "trialData": [
                    {
                        "rt": 12304,
                        "swatch": "BI2A00023",
                        "trialNum": 1,
                        "response": "probably no",
                        "responseCoded": -2
                    },
                    {
                        "rt": 3468,
                        "swatch": "BI2A00001",
                        "trialNum": 2,
                        "response": "definitely yes",
                        "responseCoded": 3
                    },
                    {
                        "rt": 7383,
                        "swatch": "BI2A00017",
                        "trialNum": 3,
                        "response": "definitely no",
                        "responseCoded": 3
                    },
                    {
                        "rt": 1851,
                        "swatch": "BI2A00011",
                        "trialNum": 4,
                        "response": "definitely yes",
                        "responseCoded": 3
                    },
                    {
                        "rt": 2597,
                        "swatch": "BI2A00020",
                        "trialNum": 5,
                        "response": "definitely yes",
                        "responseCoded": 3
                    },
                    {
                        "rt": 3704,
                        "swatch": "BI2A00040",
                        "trialNum": 6,
                        "response": "definitely no",
                        "responseCoded": 3
                    },
                    {
                        "rt": 5932,
                        "swatch": "BI2A00029",
                        "trialNum": 7,
                        "response": "definitely no",
                        "responseCoded": 3
                    },
                    {
                        "rt": 1517,
                        "swatch": "BI2A00015",
                        "trialNum": 8,
                        "response": "definitely yes",
                        "responseCoded": 3
                    },
                    {
                        "rt": 5909,
                        "swatch": "BI2A00021",
                        "trialNum": 9,
                        "response": "definitely no",
                        "responseCoded": 3
                    },
                    {
                        "rt": 1858,
                        "swatch": "BI2A00026",
                        "trialNum": 10,
                        "response": "definitely yes",
                        "responseCoded": 3
                    },
                    {
                        "rt": 2274,
                        "swatch": "BI2A00036",
                        "trialNum": 11,
                        "response": "definitely no",
                        "responseCoded": 3
                    },
                    {
                        "rt": 1605,
                        "swatch": "BI2A00009",
                        "trialNum": 12,
                        "response": "definitely yes",
                        "responseCoded": 3
                    },
                    {
                        "rt": 3176,
                        "swatch": "BI2A00033",
                        "trialNum": 13,
                        "response": "definitely no",
                        "responseCoded": 3
                    },
                    {
                        "rt": 3341,
                        "swatch": "BI2A00016",
                        "trialNum": 14,
                        "response": "definitely yes",
                        "responseCoded": 3
                    },
                    {
                        "rt": 1787,
                        "swatch": "BI2A00035",
                        "trialNum": 15,
                        "response": "definitely no",
                        "responseCoded": 3
                    },
                    {
                        "rt": 1742,
                        "swatch": "BI2A00047",
                        "trialNum": 16,
                        "response": "definitely yes",
                        "responseCoded": 3
                    },
                    {
                        "rt": 3834,
                        "swatch": "BI2A00042",
                        "trialNum": 17,
                        "response": "definitely no",
                        "responseCoded": 3
                    },
                    {
                        "rt": 3121,
                        "swatch": "BI2A00038",
                        "trialNum": 18,
                        "response": "definitely no",
                        "responseCoded": 3
                    },
                    {
                        "rt": 1510,
                        "swatch": "BI2A00019",
                        "trialNum": 19,
                        "response": "definitely yes",
                        "responseCoded": 3
                    },
                    {
                        "rt": 1063,
                        "swatch": "BI2A00004",
                        "trialNum": 20,
                        "response": "definitely yes",
                        "responseCoded": 3
                    },
                    {
                        "rt": 1052,
                        "swatch": "BI2A00006",
                        "trialNum": 21,
                        "response": "definitely yes",
                        "responseCoded": 3
                    },
                    {
                        "rt": 1125,
                        "swatch": "BI2A00002",
                        "trialNum": 22,
                        "response": "definitely yes",
                        "responseCoded": 3
                    },
                    {
                        "rt": 1425,
                        "swatch": "BI2A00041",
                        "trialNum": 23,
                        "response": "definitely no",
                        "responseCoded": 3
                    },
                    {
                        "rt": 1640,
                        "swatch": "BI2A00024",
                        "trialNum": 24,
                        "response": "definitely yes",
                        "responseCoded": 3
                    },
                    {
                        "rt": 11239,
                        "swatch": "BI2A00012",
                        "trialNum": 25,
                        "response": "definitely no",
                        "responseCoded": 3
                    },
                    {
                        "rt": 6106,
                        "swatch": "BI2A00025",
                        "trialNum": 26,
                        "response": "definitely no",
                        "responseCoded": 3
                    },
                    {
                        "rt": 1313,
                        "swatch": "BI2A00046",
                        "trialNum": 27,
                        "response": "definitely no",
                        "responseCoded": 3
                    },
                    {
                        "rt": 3542,
                        "swatch": "BI2A00010",
                        "trialNum": 28,
                        "response": "definitely yes",
                        "responseCoded": 3
                    },
                    {
                        "rt": 7827,
                        "swatch": "BI2A00028",
                        "trialNum": 29,
                        "response": "probably no",
                        "responseCoded": -2
                    },
                    {
                        "rt": 2250,
                        "swatch": "BI2A00039",
                        "trialNum": 30,
                        "response": "definitely no",
                        "responseCoded": 3
                    },
                    {
                        "rt": 1490,
                        "swatch": "BI2A00007",
                        "trialNum": 31,
                        "response": "definitely yes",
                        "responseCoded": 3
                    },
                    {
                        "rt": 2749,
                        "swatch": "BI2A00032",
                        "trialNum": 32,
                        "response": "definitely no",
                        "responseCoded": 3
                    },
                    {
                        "rt": 1391,
                        "swatch": "BI2A00043",
                        "trialNum": 33,
                        "response": "definitely no",
                        "responseCoded": 3
                    },
                    {
                        "rt": 5029,
                        "swatch": "BI2A00018",
                        "trialNum": 34,
                        "response": "definitely no",
                        "responseCoded": 3
                    },
                    {
                        "rt": 4885,
                        "swatch": "BI2A00034",
                        "trialNum": 35,
                        "response": "probably no",
                        "responseCoded": -2
                    },
                    {
                        "rt": 1572,
                        "swatch": "BI2A00005",
                        "trialNum": 36,
                        "response": "definitely yes",
                        "responseCoded": 3
                    },
                    {
                        "rt": 1066,
                        "swatch": "BI2A00003",
                        "trialNum": 37,
                        "response": "definitely yes",
                        "responseCoded": 3
                    },
                    {
                        "rt": 2529,
                        "swatch": "BI2A00008",
                        "trialNum": 38,
                        "response": "definitely yes",
                        "responseCoded": 3
                    },
                    {
                        "rt": 1512,
                        "swatch": "BI2A00044",
                        "trialNum": 39,
                        "response": "definitely no",
                        "responseCoded": 3
                    },
                    {
                        "rt": 859,
                        "swatch": "BI2A00045",
                        "trialNum": 40,
                        "response": "definitely no",
                        "responseCoded": 3
                    },
                    {
                        "rt": 1117,
                        "swatch": "BI2A00030",
                        "trialNum": 41,
                        "response": "definitely no",
                        "responseCoded": 3
                    },
                    {
                        "rt": 1354,
                        "swatch": "BI2A00022",
                        "trialNum": 42,
                        "response": "definitely no",
                        "responseCoded": 3
                    },
                    {
                        "rt": 3910,
                        "swatch": "BI2A00027",
                        "trialNum": 43,
                        "response": "definitely no",
                        "responseCoded": 3
                    },
                    {
                        "rt": 1115,
                        "swatch": "BI2A00031",
                        "trialNum": 44,
                        "response": "definitely no",
                        "responseCoded": 3
                    },
                    {
                        "rt": 876,
                        "swatch": "BI2A00048",
                        "trialNum": 45,
                        "response": "definitely no",
                        "responseCoded": 3
                    },
                    {
                        "rt": 1812,
                        "swatch": "BI2A00013",
                        "trialNum": 46,
                        "response": "definitely yes",
                        "responseCoded": 3
                    },
                    {
                        "rt": 3315,
                        "swatch": "BI2A00037",
                        "trialNum": 47,
                        "response": "definitely no",
                        "responseCoded": 3
                    },
                    {
                        "rt": 3052,
                        "swatch": "BI2A00014",
                        "trialNum": 48,
                        "response": "probably yes",
                        "responseCoded": 2
                    }
                ],
                "age": "56",
                "comments": "",
                "religion": [
                    "none"
                ],
                "condition": "think",
                "fingerprintData": {},
                "ethnicity": [
                    "white"
                ]
            }
        }
    },
    "AcceptTime": "2015-03-03T10:42:28Z",
    "HITId": "39TX062QX1XDAW3RDVV42F2R1TJX3X",
    "Assignment": "",
    "AssignmentStatus": "Approved",
    "SubmitTime": "2015-03-03T11:17:21Z"
}