{
    "ApprovalTime": "2015-03-03T11:17:37Z",
    "AutoApprovalTime": "2015-03-03T11:14:26Z",
    "AssignmentId": "32XVDSJFP06FHM6XLQKRX8DK1PRM2S",
    "WorkerId": "A1QIJ8PQO27CJC",
    "answers": {
        "data": {
            "trials": [],
            "condition": "feelings",
            "allData": {
                "education": "grad_degree",
                "englishNative": "yes_only",
                "trialData": [
                    {
                        "rt": 10306,
                        "swatch": "BI2A00009",
                        "trialNum": 1,
                        "response": "probably no",
                        "responseCoded": -2
                    },
                    {
                        "rt": 5985,
                        "swatch": "BI2A00034",
                        "trialNum": 2,
                        "response": "definitely no",
                        "responseCoded": 3
                    },
                    {
                        "rt": 2286,
                        "swatch": "BI2A00046",
                        "trialNum": 3,
                        "response": "definitely no",
                        "responseCoded": 3
                    },
                    {
                        "rt": 2399,
                        "swatch": "BI2A00035",
                        "trialNum": 4,
                        "response": "definitely no",
                        "responseCoded": 3
                    },
                    {
                        "rt": 2979,
                        "swatch": "BI2A00005",
                        "trialNum": 5,
                        "response": "definitely no",
                        "responseCoded": 3
                    },
                    {
                        "rt": 2276,
                        "swatch": "BI2A00044",
                        "trialNum": 6,
                        "response": "definitely no",
                        "responseCoded": 3
                    },
                    {
                        "rt": 6211,
                        "swatch": "BI2A00019",
                        "trialNum": 7,
                        "response": "definitely no",
                        "responseCoded": 3
                    },
                    {
                        "rt": 2058,
                        "swatch": "BI2A00037",
                        "trialNum": 8,
                        "response": "definitely no",
                        "responseCoded": 3
                    },
                    {
                        "rt": 1496,
                        "swatch": "BI2A00017",
                        "trialNum": 9,
                        "response": "definitely no",
                        "responseCoded": 3
                    },
                    {
                        "rt": 739,
                        "swatch": "BI2A00045",
                        "trialNum": 10,
                        "response": "definitely no",
                        "responseCoded": 3
                    },
                    {
                        "rt": 3164,
                        "swatch": "BI2A00042",
                        "trialNum": 11,
                        "response": "definitely no",
                        "responseCoded": 3
                    },
                    {
                        "rt": 4332,
                        "swatch": "BI2A00018",
                        "trialNum": 12,
                        "response": "definitely no",
                        "responseCoded": 3
                    },
                    {
                        "rt": 1860,
                        "swatch": "BI2A00010",
                        "trialNum": 13,
                        "response": "definitely no",
                        "responseCoded": 3
                    },
                    {
                        "rt": 2672,
                        "swatch": "BI2A00007",
                        "trialNum": 14,
                        "response": "definitely no",
                        "responseCoded": 3
                    },
                    {
                        "rt": 1052,
                        "swatch": "BI2A00040",
                        "trialNum": 15,
                        "response": "definitely no",
                        "responseCoded": 3
                    },
                    {
                        "rt": 777,
                        "swatch": "BI2A00048",
                        "trialNum": 16,
                        "response": "definitely no",
                        "responseCoded": 3
                    },
                    {
                        "rt": 2505,
                        "swatch": "BI2A00027",
                        "trialNum": 17,
                        "response": "definitely no",
                        "responseCoded": 3
                    },
                    {
                        "rt": 2522,
                        "swatch": "BI2A00003",
                        "trialNum": 18,
                        "response": "definitely no",
                        "responseCoded": 3
                    },
                    {
                        "rt": 1055,
                        "swatch": "BI2A00036",
                        "trialNum": 19,
                        "response": "definitely no",
                        "responseCoded": 3
                    },
                    {
                        "rt": 1150,
                        "swatch": "BI2A00020",
                        "trialNum": 20,
                        "response": "definitely no",
                        "responseCoded": 3
                    },
                    {
                        "rt": 1157,
                        "swatch": "BI2A00033",
                        "trialNum": 21,
                        "response": "definitely no",
                        "responseCoded": 3
                    },
                    {
                        "rt": 891,
                        "swatch": "BI2A00047",
                        "trialNum": 22,
                        "response": "definitely no",
                        "responseCoded": 3
                    },
                    {
                        "rt": 1221,
                        "swatch": "BI2A00038",
                        "trialNum": 23,
                        "response": "definitely no",
                        "responseCoded": 3
                    },
                    {
                        "rt": 1181,
                        "swatch": "BI2A00001",
                        "trialNum": 24,
                        "response": "definitely no",
                        "responseCoded": 3
                    },
                    {
                        "rt": 7855,
                        "swatch": "BI2A00012",
                        "trialNum": 25,
                        "response": "probably yes",
                        "responseCoded": 2
                    },
                    {
                        "rt": 2241,
                        "swatch": "BI2A00006",
                        "trialNum": 26,
                        "response": "probably no",
                        "responseCoded": -2
                    },
                    {
                        "rt": 1132,
                        "swatch": "BI2A00014",
                        "trialNum": 27,
                        "response": "probably no",
                        "responseCoded": -2
                    },
                    {
                        "rt": 1855,
                        "swatch": "BI2A00022",
                        "trialNum": 28,
                        "response": "probably no",
                        "responseCoded": -2
                    },
                    {
                        "rt": 1620,
                        "swatch": "BI2A00039",
                        "trialNum": 29,
                        "response": "definitely no",
                        "responseCoded": 3
                    },
                    {
                        "rt": 1354,
                        "swatch": "BI2A00002",
                        "trialNum": 30,
                        "response": "definitely no",
                        "responseCoded": 3
                    },
                    {
                        "rt": 1429,
                        "swatch": "BI2A00032",
                        "trialNum": 31,
                        "response": "definitely no",
                        "responseCoded": 3
                    },
                    {
                        "rt": 1722,
                        "swatch": "BI2A00041",
                        "trialNum": 32,
                        "response": "definitely no",
                        "responseCoded": 3
                    },
                    {
                        "rt": 1119,
                        "swatch": "BI2A00023",
                        "trialNum": 33,
                        "response": "definitely no",
                        "responseCoded": 3
                    },
                    {
                        "rt": 1268,
                        "swatch": "BI2A00030",
                        "trialNum": 34,
                        "response": "definitely no",
                        "responseCoded": 3
                    },
                    {
                        "rt": 1212,
                        "swatch": "BI2A00029",
                        "trialNum": 35,
                        "response": "definitely no",
                        "responseCoded": 3
                    },
                    {
                        "rt": 786,
                        "swatch": "BI2A00021",
                        "trialNum": 36,
                        "response": "definitely no",
                        "responseCoded": 3
                    },
                    {
                        "rt": 1857,
                        "swatch": "BI2A00043",
                        "trialNum": 37,
                        "response": "definitely no",
                        "responseCoded": 3
                    },
                    {
                        "rt": 2033,
                        "swatch": "BI2A00004",
                        "trialNum": 38,
                        "response": "definitely no",
                        "responseCoded": 3
                    },
                    {
                        "rt": 3459,
                        "swatch": "BI2A00024",
                        "trialNum": 39,
                        "response": "definitely no",
                        "responseCoded": 3
                    },
                    {
                        "rt": 1860,
                        "swatch": "BI2A00008",
                        "trialNum": 40,
                        "response": "definitely no",
                        "responseCoded": 3
                    },
                    {
                        "rt": 3261,
                        "swatch": "BI2A00025",
                        "trialNum": 41,
                        "response": "definitely no",
                        "responseCoded": 3
                    },
                    {
                        "rt": 1228,
                        "swatch": "BI2A00013",
                        "trialNum": 42,
                        "response": "definitely no",
                        "responseCoded": 3
                    },
                    {
                        "rt": 1484,
                        "swatch": "BI2A00028",
                        "trialNum": 43,
                        "response": "definitely no",
                        "responseCoded": 3
                    },
                    {
                        "rt": 4204,
                        "swatch": "BI2A00011",
                        "trialNum": 44,
                        "response": "maybe yes",
                        "responseCoded": 1
                    },
                    {
                        "rt": 1869,
                        "swatch": "BI2A00026",
                        "trialNum": 45,
                        "response": "definitely no",
                        "responseCoded": 3
                    },
                    {
                        "rt": 1117,
                        "swatch": "BI2A00016",
                        "trialNum": 46,
                        "response": "definitely no",
                        "responseCoded": 3
                    },
                    {
                        "rt": 1315,
                        "swatch": "BI2A00015",
                        "trialNum": 47,
                        "response": "definitely no",
                        "responseCoded": 3
                    },
                    {
                        "rt": 909,
                        "swatch": "BI2A00031",
                        "trialNum": 48,
                        "response": "definitely no",
                        "responseCoded": 3
                    }
                ],
                "gender": "male",
                "age": "33",
                "comments": "",
                "religion": [
                    "none"
                ],
                "condition": "feelings",
                "fingerprintData": {
                    "ip": "72.195.138.222",
                    "screenHeight": 1024,
                    "plugins": [
                        {
                            "description": "Enables Widevine licenses for playback of HTML audio/video content. (version: 1.4.6.758)",
                            "filename": "widevinecdmadapter.dll"
                        },
                        {
                            "description": "Shockwave Flash 16.0 r0",
                            "filename": "pepflashplayer.dll"
                        },
                        {
                            "description": "This plugin allows you to securely access other computers that have been shared with you. To use this plugin you must first install the <a href=\"https://chrome.google.com/remotedesktop\">Chrome Remote Desktop</a> webapp.",
                            "filename": "internal-remoting-viewer"
                        },
                        {
                            "description": "",
                            "filename": "internal-nacl-plugin"
                        },
                        {
                            "description": "",
                            "filename": "pdf.dll"
                        },
                        {
                            "description": "np-mswmp",
                            "filename": "np-mswmp.dll"
                        },
                        {
                            "description": "Foxit Reader Plug-In For Firefox and Netscape",
                            "filename": "npFoxitReaderPlugin.dll"
                        },
                        {
                            "description": "Winamp Application Detector",
                            "filename": "npwachk.dll"
                        },
                        {
                            "description": "Adobe PDF Plug-In For Firefox and Netscape 11.0.10",
                            "filename": "nppdf32.dll"
                        },
                        {
                            "description": "Comrade Plugin",
                            "filename": "npcomrade.dll"
                        },
                        {
                            "description": "NPRuntime Script Plug-in Library for Java(TM) Deploy",
                            "filename": "npDeployJava1.dll"
                        },
                        {
                            "description": "Next Generation Java Plug-in 11.31.2 for Mozilla browsers",
                            "filename": "npjp2.dll"
                        },
                        {
                            "description": "5.1.30514.0",
                            "filename": "npctrl.dll"
                        },
                        {
                            "description": "VLC media player Web Plugin 2.0.0",
                            "filename": "npvlc.dll"
                        },
                        {
                            "description": "NPWLPG",
                            "filename": "NPWLPG.dll"
                        },
                        {
                            "description": "Unity Player 4.6.1f1",
                            "filename": "npUnity3D32.dll"
                        },
                        {
                            "description": "Google Update",
                            "filename": "npGoogleUpdate3.dll"
                        },
                        {
                            "description": "Version 5.40.2.0",
                            "filename": "npgoogletalk.dll"
                        },
                        {
                            "description": "Version 5.40.2.0",
                            "filename": "npo1d.dll"
                        },
                        {
                            "description": "Shockwave Flash 16.0 r0",
                            "filename": "NPSWF32_16_0_0_305.dll"
                        }
                    ],
                    "timezone": 300,
                    "colorDepth": 24,
                    "screenWidth": 1280,
                    "geo": {
                        "city": "Providence",
                        "region_code": "RI",
                        "region_name": "Rhode Island",
                        "ip": "72.195.138.222",
                        "time_zone": "America/New_York",
                        "longitude": -71.394,
                        "metro_code": 521,
                        "latitude": 41.838,
                        "country_code": "US",
                        "country_name": "United States",
                        "zip_code": "02906"
                    },
                    "browser": "Mozilla/5.0 (Windows NT 6.1; WOW64) AppleWebKit/537.36 (KHTML, like Gecko) Chrome/40.0.2214.115 Safari/537.36"
                },
                "ethnicity": [
                    "white"
                ]
            }
        }
    },
    "AcceptTime": "2015-03-03T11:06:01Z",
    "HITId": "39TX062QX1XDAW3RDVV42F2R1TJX3X",
    "Assignment": "",
    "AssignmentStatus": "Approved",
    "SubmitTime": "2015-03-03T11:09:26Z"
}