{
    "ApprovalTime": "2015-03-03T11:47:36Z",
    "AutoApprovalTime": "2015-03-03T11:45:04Z",
    "AssignmentId": "32ZKVD547GW8JDYJY18N227IV4NB33",
    "WorkerId": "AJVHIAAVCY4HI",
    "answers": {
        "data": {
            "trials": [],
            "condition": "animal",
            "allData": {
                "education": "college_bachDegree",
                "englishNative": "yes_multiple",
                "trialData": [
                    {
                        "rt": 4462,
                        "swatch": "BI2A00025",
                        "trialNum": 1,
                        "response": "probably yes",
                        "responseCoded": 2
                    },
                    {
                        "rt": 2868,
                        "swatch": "BI2A00019",
                        "trialNum": 2,
                        "response": "probably yes",
                        "responseCoded": 2
                    },
                    {
                        "rt": 4868,
                        "swatch": "BI2A00029",
                        "trialNum": 3,
                        "response": "maybe no",
                        "responseCoded": -1
                    },
                    {
                        "rt": 2174,
                        "swatch": "BI2A00011",
                        "trialNum": 4,
                        "response": "probably yes",
                        "responseCoded": 2
                    },
                    {
                        "rt": 3251,
                        "swatch": "BI2A00012",
                        "trialNum": 5,
                        "response": "maybe no",
                        "responseCoded": -1
                    },
                    {
                        "rt": 2365,
                        "swatch": "BI2A00044",
                        "trialNum": 6,
                        "response": "probably no",
                        "responseCoded": -2
                    },
                    {
                        "rt": 1763,
                        "swatch": "BI2A00008",
                        "trialNum": 7,
                        "response": "probably no",
                        "responseCoded": -2
                    },
                    {
                        "rt": 1600,
                        "swatch": "BI2A00009",
                        "trialNum": 8,
                        "response": "probably no",
                        "responseCoded": -2
                    },
                    {
                        "rt": 1510,
                        "swatch": "BI2A00015",
                        "trialNum": 9,
                        "response": "probably no",
                        "responseCoded": -2
                    },
                    {
                        "rt": 2225,
                        "swatch": "BI2A00024",
                        "trialNum": 10,
                        "response": "probably no",
                        "responseCoded": -2
                    },
                    {
                        "rt": 1981,
                        "swatch": "BI2A00017",
                        "trialNum": 11,
                        "response": "probably no",
                        "responseCoded": -2
                    },
                    {
                        "rt": 1953,
                        "swatch": "BI2A00020",
                        "trialNum": 12,
                        "response": "probably no",
                        "responseCoded": -2
                    },
                    {
                        "rt": 1653,
                        "swatch": "BI2A00004",
                        "trialNum": 13,
                        "response": "probably no",
                        "responseCoded": -2
                    },
                    {
                        "rt": 1346,
                        "swatch": "BI2A00032",
                        "trialNum": 14,
                        "response": "probably no",
                        "responseCoded": -2
                    },
                    {
                        "rt": 3646,
                        "swatch": "BI2A00022",
                        "trialNum": 15,
                        "response": "maybe yes",
                        "responseCoded": 1
                    },
                    {
                        "rt": 1477,
                        "swatch": "BI2A00007",
                        "trialNum": 16,
                        "response": "maybe yes",
                        "responseCoded": 1
                    },
                    {
                        "rt": 2372,
                        "swatch": "BI2A00040",
                        "trialNum": 17,
                        "response": "probably no",
                        "responseCoded": -2
                    },
                    {
                        "rt": 2860,
                        "swatch": "BI2A00016",
                        "trialNum": 18,
                        "response": "probably no",
                        "responseCoded": -2
                    },
                    {
                        "rt": 9723,
                        "swatch": "BI2A00018",
                        "trialNum": 19,
                        "response": "probably no",
                        "responseCoded": -2
                    },
                    {
                        "rt": 1651,
                        "swatch": "BI2A00034",
                        "trialNum": 20,
                        "response": "probably no",
                        "responseCoded": -2
                    },
                    {
                        "rt": 1549,
                        "swatch": "BI2A00035",
                        "trialNum": 21,
                        "response": "probably no",
                        "responseCoded": -2
                    },
                    {
                        "rt": 1296,
                        "swatch": "BI2A00023",
                        "trialNum": 22,
                        "response": "probably no",
                        "responseCoded": -2
                    },
                    {
                        "rt": 2252,
                        "swatch": "BI2A00002",
                        "trialNum": 23,
                        "response": "probably no",
                        "responseCoded": -2
                    },
                    {
                        "rt": 1874,
                        "swatch": "BI2A00042",
                        "trialNum": 24,
                        "response": "probably no",
                        "responseCoded": -2
                    },
                    {
                        "rt": 1714,
                        "swatch": "BI2A00037",
                        "trialNum": 25,
                        "response": "probably no",
                        "responseCoded": -2
                    },
                    {
                        "rt": 1315,
                        "swatch": "BI2A00021",
                        "trialNum": 26,
                        "response": "probably no",
                        "responseCoded": -2
                    },
                    {
                        "rt": 1416,
                        "swatch": "BI2A00046",
                        "trialNum": 27,
                        "response": "probably no",
                        "responseCoded": -2
                    },
                    {
                        "rt": 2988,
                        "swatch": "BI2A00003",
                        "trialNum": 28,
                        "response": "probably yes",
                        "responseCoded": 2
                    },
                    {
                        "rt": 1618,
                        "swatch": "BI2A00045",
                        "trialNum": 29,
                        "response": "definitely no",
                        "responseCoded": 3
                    },
                    {
                        "rt": 1827,
                        "swatch": "BI2A00010",
                        "trialNum": 30,
                        "response": "definitely no",
                        "responseCoded": 3
                    },
                    {
                        "rt": 2013,
                        "swatch": "BI2A00038",
                        "trialNum": 31,
                        "response": "definitely no",
                        "responseCoded": 3
                    },
                    {
                        "rt": 1526,
                        "swatch": "BI2A00028",
                        "trialNum": 32,
                        "response": "definitely no",
                        "responseCoded": 3
                    },
                    {
                        "rt": 1444,
                        "swatch": "BI2A00048",
                        "trialNum": 33,
                        "response": "definitely no",
                        "responseCoded": 3
                    },
                    {
                        "rt": 2088,
                        "swatch": "BI2A00036",
                        "trialNum": 34,
                        "response": "probably no",
                        "responseCoded": -2
                    },
                    {
                        "rt": 1562,
                        "swatch": "BI2A00014",
                        "trialNum": 35,
                        "response": "definitely no",
                        "responseCoded": 3
                    },
                    {
                        "rt": 3729,
                        "swatch": "BI2A00026",
                        "trialNum": 36,
                        "response": "probably no",
                        "responseCoded": -2
                    },
                    {
                        "rt": 2140,
                        "swatch": "BI2A00043",
                        "trialNum": 37,
                        "response": "definitely no",
                        "responseCoded": 3
                    },
                    {
                        "rt": 1504,
                        "swatch": "BI2A00041",
                        "trialNum": 38,
                        "response": "definitely no",
                        "responseCoded": 3
                    },
                    {
                        "rt": 1461,
                        "swatch": "BI2A00039",
                        "trialNum": 39,
                        "response": "definitely no",
                        "responseCoded": 3
                    },
                    {
                        "rt": 2189,
                        "swatch": "BI2A00006",
                        "trialNum": 40,
                        "response": "probably yes",
                        "responseCoded": 2
                    },
                    {
                        "rt": 1450,
                        "swatch": "BI2A00031",
                        "trialNum": 41,
                        "response": "definitely no",
                        "responseCoded": 3
                    },
                    {
                        "rt": 1306,
                        "swatch": "BI2A00033",
                        "trialNum": 42,
                        "response": "definitely no",
                        "responseCoded": 3
                    },
                    {
                        "rt": 1104,
                        "swatch": "BI2A00030",
                        "trialNum": 43,
                        "response": "definitely no",
                        "responseCoded": 3
                    },
                    {
                        "rt": 116461,
                        "swatch": "BI2A00001",
                        "trialNum": 44,
                        "response": "probably no",
                        "responseCoded": -2
                    },
                    {
                        "rt": 6192,
                        "swatch": "BI2A00013",
                        "trialNum": 45,
                        "response": "maybe yes",
                        "responseCoded": 1
                    },
                    {
                        "rt": 2995,
                        "swatch": "BI2A00047",
                        "trialNum": 46,
                        "response": "definitely no",
                        "responseCoded": 3
                    },
                    {
                        "rt": 2202,
                        "swatch": "BI2A00027",
                        "trialNum": 47,
                        "response": "definitely no",
                        "responseCoded": 3
                    },
                    {
                        "rt": 3170,
                        "swatch": "BI2A00005",
                        "trialNum": 48,
                        "response": "probably yes",
                        "responseCoded": 2
                    }
                ],
                "gender": "female",
                "age": "32",
                "comments": "No.",
                "religion": [
                    "islam"
                ],
                "condition": "animal",
                "fingerprintData": {
                    "ip": "108.31.228.181",
                    "screenHeight": 640,
                    "plugins": [],
                    "timezone": 300,
                    "colorDepth": 32,
                    "screenWidth": 360,
                    "geo": {
                        "city": "",
                        "region_code": "",
                        "region_name": "",
                        "ip": "108.31.228.181",
                        "time_zone": "",
                        "longitude": -97,
                        "metro_code": 0,
                        "latitude": 38,
                        "country_code": "US",
                        "country_name": "United States",
                        "zip_code": ""
                    },
                    "browser": "Mozilla/5.0 (Linux; Android 4.4.4; en-us; SAMSUNG-SGH-I337 Build/KTU84P) AppleWebKit/537.36 (KHTML, like Gecko) Version/1.5 Chrome/28.0.1500.94 Mobile Safari/537.36"
                },
                "ethnicity": [
                    "asian_southAsian"
                ]
            }
        }
    },
    "AcceptTime": "2015-03-03T10:44:02Z",
    "HITId": "39TX062QX1XDAW3RDVV42F2R1TJX3X",
    "Assignment": "",
    "AssignmentStatus": "Approved",
    "SubmitTime": "2015-03-03T11:40:04Z"
}