{
    "ApprovalTime": "2015-03-03T10:52:37Z",
    "AutoApprovalTime": "2015-03-03T10:50:49Z",
    "AssignmentId": "337RC3OW06B48VME9O3NZ0V6YIULVX",
    "WorkerId": "A104V5RLS1VRHC",
    "answers": {
        "data": {
            "trials": [],
            "condition": "feelings",
            "allData": {
                "education": "hs_diploma",
                "englishNative": "yes_multiple",
                "trialData": [
                    {
                        "rt": 1141,
                        "swatch": "BI2A00005",
                        "trialNum": 1,
                        "response": "equally yes/no",
                        "responseCoded": 0
                    },
                    {
                        "rt": 668,
                        "swatch": "BI2A00041",
                        "trialNum": 2,
                        "response": "maybe yes",
                        "responseCoded": 1
                    },
                    {
                        "rt": 437,
                        "swatch": "BI2A00025",
                        "trialNum": 3,
                        "response": "maybe no",
                        "responseCoded": -1
                    },
                    {
                        "rt": 669,
                        "swatch": "BI2A00002",
                        "trialNum": 4,
                        "response": "probably yes",
                        "responseCoded": 2
                    },
                    {
                        "rt": 454,
                        "swatch": "BI2A00044",
                        "trialNum": 5,
                        "response": "maybe no",
                        "responseCoded": -1
                    },
                    {
                        "rt": 763,
                        "swatch": "BI2A00006",
                        "trialNum": 6,
                        "response": "equally yes/no",
                        "responseCoded": 0
                    },
                    {
                        "rt": 270,
                        "swatch": "BI2A00040",
                        "trialNum": 7,
                        "response": "probably yes",
                        "responseCoded": 2
                    },
                    {
                        "rt": 254,
                        "swatch": "BI2A00014",
                        "trialNum": 8,
                        "response": "maybe no",
                        "responseCoded": -1
                    },
                    {
                        "rt": 412,
                        "swatch": "BI2A00013",
                        "trialNum": 9,
                        "response": "maybe no",
                        "responseCoded": -1
                    },
                    {
                        "rt": 238,
                        "swatch": "BI2A00034",
                        "trialNum": 10,
                        "response": "maybe yes",
                        "responseCoded": 1
                    },
                    {
                        "rt": 201,
                        "swatch": "BI2A00028",
                        "trialNum": 11,
                        "response": "definitely yes",
                        "responseCoded": 3
                    },
                    {
                        "rt": 206,
                        "swatch": "BI2A00016",
                        "trialNum": 12,
                        "response": "probably yes",
                        "responseCoded": 2
                    },
                    {
                        "rt": 181,
                        "swatch": "BI2A00045",
                        "trialNum": 13,
                        "response": "probably no",
                        "responseCoded": -2
                    },
                    {
                        "rt": 565,
                        "swatch": "BI2A00027",
                        "trialNum": 14,
                        "response": "definitely yes",
                        "responseCoded": 3
                    },
                    {
                        "rt": 566,
                        "swatch": "BI2A00011",
                        "trialNum": 15,
                        "response": "equally yes/no",
                        "responseCoded": 0
                    },
                    {
                        "rt": 173,
                        "swatch": "BI2A00004",
                        "trialNum": 16,
                        "response": "probably yes",
                        "responseCoded": 2
                    },
                    {
                        "rt": 181,
                        "swatch": "BI2A00047",
                        "trialNum": 17,
                        "response": "equally yes/no",
                        "responseCoded": 0
                    },
                    {
                        "rt": 205,
                        "swatch": "BI2A00019",
                        "trialNum": 18,
                        "response": "maybe yes",
                        "responseCoded": 1
                    },
                    {
                        "rt": 357,
                        "swatch": "BI2A00017",
                        "trialNum": 19,
                        "response": "probably no",
                        "responseCoded": -2
                    },
                    {
                        "rt": 549,
                        "swatch": "BI2A00003",
                        "trialNum": 20,
                        "response": "definitely yes",
                        "responseCoded": 3
                    },
                    {
                        "rt": 175,
                        "swatch": "BI2A00030",
                        "trialNum": 21,
                        "response": "definitely yes",
                        "responseCoded": 3
                    },
                    {
                        "rt": 340,
                        "swatch": "BI2A00010",
                        "trialNum": 22,
                        "response": "maybe no",
                        "responseCoded": -1
                    },
                    {
                        "rt": 189,
                        "swatch": "BI2A00032",
                        "trialNum": 23,
                        "response": "probably no",
                        "responseCoded": -2
                    },
                    {
                        "rt": 197,
                        "swatch": "BI2A00031",
                        "trialNum": 24,
                        "response": "maybe no",
                        "responseCoded": -1
                    },
                    {
                        "rt": 381,
                        "swatch": "BI2A00036",
                        "trialNum": 25,
                        "response": "definitely yes",
                        "responseCoded": 3
                    },
                    {
                        "rt": 173,
                        "swatch": "BI2A00007",
                        "trialNum": 26,
                        "response": "maybe yes",
                        "responseCoded": 1
                    },
                    {
                        "rt": 181,
                        "swatch": "BI2A00018",
                        "trialNum": 27,
                        "response": "probably no",
                        "responseCoded": -2
                    },
                    {
                        "rt": 205,
                        "swatch": "BI2A00024",
                        "trialNum": 28,
                        "response": "definitely no",
                        "responseCoded": 3
                    },
                    {
                        "rt": 574,
                        "swatch": "BI2A00020",
                        "trialNum": 29,
                        "response": "definitely yes",
                        "responseCoded": 3
                    },
                    {
                        "rt": 166,
                        "swatch": "BI2A00012",
                        "trialNum": 30,
                        "response": "probably yes",
                        "responseCoded": 2
                    },
                    {
                        "rt": 205,
                        "swatch": "BI2A00015",
                        "trialNum": 31,
                        "response": "maybe yes",
                        "responseCoded": 1
                    },
                    {
                        "rt": 189,
                        "swatch": "BI2A00022",
                        "trialNum": 32,
                        "response": "maybe yes",
                        "responseCoded": 1
                    },
                    {
                        "rt": 175,
                        "swatch": "BI2A00001",
                        "trialNum": 33,
                        "response": "maybe yes",
                        "responseCoded": 1
                    },
                    {
                        "rt": 180,
                        "swatch": "BI2A00042",
                        "trialNum": 34,
                        "response": "maybe yes",
                        "responseCoded": 1
                    },
                    {
                        "rt": 158,
                        "swatch": "BI2A00029",
                        "trialNum": 35,
                        "response": "maybe yes",
                        "responseCoded": 1
                    },
                    {
                        "rt": 398,
                        "swatch": "BI2A00033",
                        "trialNum": 36,
                        "response": "definitely yes",
                        "responseCoded": 3
                    },
                    {
                        "rt": 206,
                        "swatch": "BI2A00037",
                        "trialNum": 37,
                        "response": "equally yes/no",
                        "responseCoded": 0
                    },
                    {
                        "rt": 398,
                        "swatch": "BI2A00009",
                        "trialNum": 38,
                        "response": "equally yes/no",
                        "responseCoded": 0
                    },
                    {
                        "rt": 182,
                        "swatch": "BI2A00046",
                        "trialNum": 39,
                        "response": "probably yes",
                        "responseCoded": 2
                    },
                    {
                        "rt": 174,
                        "swatch": "BI2A00038",
                        "trialNum": 40,
                        "response": "maybe no",
                        "responseCoded": -1
                    },
                    {
                        "rt": 190,
                        "swatch": "BI2A00021",
                        "trialNum": 41,
                        "response": "probably no",
                        "responseCoded": -2
                    },
                    {
                        "rt": 190,
                        "swatch": "BI2A00039",
                        "trialNum": 42,
                        "response": "probably no",
                        "responseCoded": -2
                    },
                    {
                        "rt": 357,
                        "swatch": "BI2A00008",
                        "trialNum": 43,
                        "response": "maybe yes",
                        "responseCoded": 1
                    },
                    {
                        "rt": 381,
                        "swatch": "BI2A00043",
                        "trialNum": 44,
                        "response": "maybe no",
                        "responseCoded": -1
                    },
                    {
                        "rt": 182,
                        "swatch": "BI2A00035",
                        "trialNum": 45,
                        "response": "maybe yes",
                        "responseCoded": 1
                    },
                    {
                        "rt": 181,
                        "swatch": "BI2A00023",
                        "trialNum": 46,
                        "response": "probably yes",
                        "responseCoded": 2
                    },
                    {
                        "rt": 197,
                        "swatch": "BI2A00026",
                        "trialNum": 47,
                        "response": "definitely yes",
                        "responseCoded": 3
                    },
                    {
                        "rt": 341,
                        "swatch": "BI2A00048",
                        "trialNum": 48,
                        "response": "maybe yes",
                        "responseCoded": 1
                    }
                ],
                "gender": "male",
                "age": "26",
                "comments": "",
                "religion": [
                    "christianity_morman"
                ],
                "condition": "feelings",
                "fingerprintData": {
                    "ip": "70.167.95.4",
                    "screenHeight": 1080,
                    "plugins": [],
                    "timezone": 300,
                    "colorDepth": 24,
                    "screenWidth": 1920,
                    "geo": {
                        "city": "Alachua",
                        "region_code": "FL",
                        "region_name": "Florida",
                        "ip": "70.167.95.4",
                        "time_zone": "America/New_York",
                        "longitude": -82.425,
                        "metro_code": 592,
                        "latitude": 29.752,
                        "country_code": "US",
                        "country_name": "United States",
                        "zip_code": "32615"
                    },
                    "browser": "Mozilla/5.0 (compatible; MSIE 10.0; Windows NT 6.1; WOW64; Trident/6.0; SLCC2; .NET CLR 2.0.50727; .NET CLR 3.5.30729; .NET CLR 3.0.30729; Media Center PC 6.0; .NET4.0C; .NET4.0E; InfoPath.3)"
                },
                "ethnicity": [
                    "white"
                ]
            }
        }
    },
    "AcceptTime": "2015-03-03T10:44:58Z",
    "HITId": "39TX062QX1XDAW3RDVV42F2R1TJX3X",
    "Assignment": "",
    "AssignmentStatus": "Approved",
    "SubmitTime": "2015-03-03T10:45:49Z"
}