{
    "ApprovalTime": "2015-03-03T11:02:36Z",
    "AutoApprovalTime": "2015-03-03T11:00:26Z",
    "AssignmentId": "33IZTU6J82AJGXMZTC16Z76M6M9XSN",
    "WorkerId": "A2K89V0WNI3MHC",
    "answers": {
        "data": {
            "trials": [],
            "condition": "sense",
            "allData": {
                "education": "college_bachDegree",
                "englishNative": "yes_only",
                "trialData": [
                    {
                        "rt": 5750,
                        "swatch": "BI2A00008",
                        "trialNum": 1,
                        "response": "definitely yes",
                        "responseCoded": 3
                    },
                    {
                        "rt": 4982,
                        "swatch": "BI2A00019",
                        "trialNum": 2,
                        "response": "maybe yes",
                        "responseCoded": 1
                    },
                    {
                        "rt": 3027,
                        "swatch": "BI2A00011",
                        "trialNum": 3,
                        "response": "probably yes",
                        "responseCoded": 2
                    },
                    {
                        "rt": 3469,
                        "swatch": "BI2A00025",
                        "trialNum": 4,
                        "response": "maybe no",
                        "responseCoded": -1
                    },
                    {
                        "rt": 3160,
                        "swatch": "BI2A00036",
                        "trialNum": 5,
                        "response": "probably no",
                        "responseCoded": -2
                    },
                    {
                        "rt": 2597,
                        "swatch": "BI2A00043",
                        "trialNum": 6,
                        "response": "probably no",
                        "responseCoded": -2
                    },
                    {
                        "rt": 2167,
                        "swatch": "BI2A00035",
                        "trialNum": 7,
                        "response": "probably no",
                        "responseCoded": -2
                    },
                    {
                        "rt": 5080,
                        "swatch": "BI2A00024",
                        "trialNum": 8,
                        "response": "maybe yes",
                        "responseCoded": 1
                    },
                    {
                        "rt": 1991,
                        "swatch": "BI2A00010",
                        "trialNum": 9,
                        "response": "probably yes",
                        "responseCoded": 2
                    },
                    {
                        "rt": 1636,
                        "swatch": "BI2A00001",
                        "trialNum": 10,
                        "response": "maybe yes",
                        "responseCoded": 1
                    },
                    {
                        "rt": 2254,
                        "swatch": "BI2A00018",
                        "trialNum": 11,
                        "response": "maybe no",
                        "responseCoded": -1
                    },
                    {
                        "rt": 1759,
                        "swatch": "BI2A00040",
                        "trialNum": 12,
                        "response": "definitely no",
                        "responseCoded": 3
                    },
                    {
                        "rt": 2594,
                        "swatch": "BI2A00017",
                        "trialNum": 13,
                        "response": "probably no",
                        "responseCoded": -2
                    },
                    {
                        "rt": 1816,
                        "swatch": "BI2A00006",
                        "trialNum": 14,
                        "response": "probably yes",
                        "responseCoded": 2
                    },
                    {
                        "rt": 1865,
                        "swatch": "BI2A00007",
                        "trialNum": 15,
                        "response": "probably yes",
                        "responseCoded": 2
                    },
                    {
                        "rt": 2334,
                        "swatch": "BI2A00032",
                        "trialNum": 16,
                        "response": "probably no",
                        "responseCoded": -2
                    },
                    {
                        "rt": 2219,
                        "swatch": "BI2A00022",
                        "trialNum": 17,
                        "response": "maybe no",
                        "responseCoded": -1
                    },
                    {
                        "rt": 2000,
                        "swatch": "BI2A00027",
                        "trialNum": 18,
                        "response": "probably no",
                        "responseCoded": -2
                    },
                    {
                        "rt": 2163,
                        "swatch": "BI2A00038",
                        "trialNum": 19,
                        "response": "probably no",
                        "responseCoded": -2
                    },
                    {
                        "rt": 1948,
                        "swatch": "BI2A00012",
                        "trialNum": 20,
                        "response": "probably yes",
                        "responseCoded": 2
                    },
                    {
                        "rt": 3677,
                        "swatch": "BI2A00013",
                        "trialNum": 21,
                        "response": "maybe yes",
                        "responseCoded": 1
                    },
                    {
                        "rt": 1794,
                        "swatch": "BI2A00020",
                        "trialNum": 22,
                        "response": "maybe yes",
                        "responseCoded": 1
                    },
                    {
                        "rt": 1854,
                        "swatch": "BI2A00048",
                        "trialNum": 23,
                        "response": "definitely no",
                        "responseCoded": 3
                    },
                    {
                        "rt": 1716,
                        "swatch": "BI2A00009",
                        "trialNum": 24,
                        "response": "probably yes",
                        "responseCoded": 2
                    },
                    {
                        "rt": 3038,
                        "swatch": "BI2A00023",
                        "trialNum": 25,
                        "response": "maybe yes",
                        "responseCoded": 1
                    },
                    {
                        "rt": 1918,
                        "swatch": "BI2A00033",
                        "trialNum": 26,
                        "response": "probably no",
                        "responseCoded": -2
                    },
                    {
                        "rt": 1842,
                        "swatch": "BI2A00014",
                        "trialNum": 27,
                        "response": "maybe no",
                        "responseCoded": -1
                    },
                    {
                        "rt": 1707,
                        "swatch": "BI2A00039",
                        "trialNum": 28,
                        "response": "definitely no",
                        "responseCoded": 3
                    },
                    {
                        "rt": 1591,
                        "swatch": "BI2A00003",
                        "trialNum": 29,
                        "response": "probably yes",
                        "responseCoded": 2
                    },
                    {
                        "rt": 3124,
                        "swatch": "BI2A00005",
                        "trialNum": 30,
                        "response": "probably yes",
                        "responseCoded": 2
                    },
                    {
                        "rt": 2239,
                        "swatch": "BI2A00037",
                        "trialNum": 31,
                        "response": "probably no",
                        "responseCoded": -2
                    },
                    {
                        "rt": 4574,
                        "swatch": "BI2A00034",
                        "trialNum": 32,
                        "response": "maybe no",
                        "responseCoded": -1
                    },
                    {
                        "rt": 1648,
                        "swatch": "BI2A00004",
                        "trialNum": 33,
                        "response": "probably yes",
                        "responseCoded": 2
                    },
                    {
                        "rt": 1696,
                        "swatch": "BI2A00044",
                        "trialNum": 34,
                        "response": "definitely no",
                        "responseCoded": 3
                    },
                    {
                        "rt": 1900,
                        "swatch": "BI2A00028",
                        "trialNum": 35,
                        "response": "maybe no",
                        "responseCoded": -1
                    },
                    {
                        "rt": 1764,
                        "swatch": "BI2A00031",
                        "trialNum": 36,
                        "response": "definitely no",
                        "responseCoded": 3
                    },
                    {
                        "rt": 1563,
                        "swatch": "BI2A00015",
                        "trialNum": 37,
                        "response": "probably yes",
                        "responseCoded": 2
                    },
                    {
                        "rt": 2561,
                        "swatch": "BI2A00047",
                        "trialNum": 38,
                        "response": "probably no",
                        "responseCoded": -2
                    },
                    {
                        "rt": 1834,
                        "swatch": "BI2A00042",
                        "trialNum": 39,
                        "response": "probably no",
                        "responseCoded": -2
                    },
                    {
                        "rt": 1445,
                        "swatch": "BI2A00041",
                        "trialNum": 40,
                        "response": "definitely no",
                        "responseCoded": 3
                    },
                    {
                        "rt": 6533,
                        "swatch": "BI2A00021",
                        "trialNum": 41,
                        "response": "maybe no",
                        "responseCoded": -1
                    },
                    {
                        "rt": 8098,
                        "swatch": "BI2A00016",
                        "trialNum": 42,
                        "response": "maybe no",
                        "responseCoded": -1
                    },
                    {
                        "rt": 2104,
                        "swatch": "BI2A00002",
                        "trialNum": 43,
                        "response": "maybe yes",
                        "responseCoded": 1
                    },
                    {
                        "rt": 8090,
                        "swatch": "BI2A00046",
                        "trialNum": 44,
                        "response": "probably no",
                        "responseCoded": -2
                    },
                    {
                        "rt": 1878,
                        "swatch": "BI2A00030",
                        "trialNum": 45,
                        "response": "probably no",
                        "responseCoded": -2
                    },
                    {
                        "rt": 2026,
                        "swatch": "BI2A00045",
                        "trialNum": 46,
                        "response": "probably no",
                        "responseCoded": -2
                    },
                    {
                        "rt": 2179,
                        "swatch": "BI2A00029",
                        "trialNum": 47,
                        "response": "definitely no",
                        "responseCoded": 3
                    },
                    {
                        "rt": 1898,
                        "swatch": "BI2A00026",
                        "trialNum": 48,
                        "response": "maybe no",
                        "responseCoded": -1
                    }
                ],
                "gender": "male",
                "age": "31",
                "comments": "",
                "religion": [
                    "christianity_protestant"
                ],
                "condition": "sense",
                "fingerprintData": {
                    "ip": "108.44.80.47",
                    "screenHeight": 600,
                    "plugins": [],
                    "timezone": 300,
                    "colorDepth": 32,
                    "screenWidth": 960,
                    "geo": {
                        "city": "Christiansburg",
                        "region_code": "VA",
                        "region_name": "Virginia",
                        "ip": "108.44.80.47",
                        "time_zone": "America/New_York",
                        "longitude": -80.421,
                        "metro_code": 573,
                        "latitude": 37.104,
                        "country_code": "US",
                        "country_name": "United States",
                        "zip_code": "24073"
                    },
                    "browser": "Mozilla/5.0 (Linux; Android 5.0.2; Nexus 7 Build/LRX22G) AppleWebKit/537.36 (KHTML, like Gecko) Chrome/40.0.2214.109 Safari/537.36"
                },
                "ethnicity": [
                    "white"
                ]
            }
        }
    },
    "AcceptTime": "2015-03-03T10:50:21Z",
    "HITId": "39TX062QX1XDAW3RDVV42F2R1TJX3X",
    "Assignment": "",
    "AssignmentStatus": "Approved",
    "SubmitTime": "2015-03-03T10:55:26Z"
}