{
    "ApprovalTime": "2015-03-03T11:17:37Z",
    "AutoApprovalTime": "2015-03-03T11:14:19Z",
    "AssignmentId": "345LHZDEDY1NFC7PYSPI7SZ6KPU3UC",
    "WorkerId": "A1YPKT2UPUQ464",
    "answers": {
        "data": {
            "trials": [],
            "condition": "pain",
            "allData": {
                "education": "college_bachDegree",
                "englishNative": "yes_only",
                "trialData": [
                    {
                        "rt": 4800,
                        "swatch": "BI2A00003",
                        "trialNum": 1,
                        "response": "definitely yes",
                        "responseCoded": 3
                    },
                    {
                        "rt": 6023,
                        "swatch": "BI2A00014",
                        "trialNum": 2,
                        "response": "definitely yes",
                        "responseCoded": 3
                    },
                    {
                        "rt": 2853,
                        "swatch": "BI2A00005",
                        "trialNum": 3,
                        "response": "definitely yes",
                        "responseCoded": 3
                    },
                    {
                        "rt": 3575,
                        "swatch": "BI2A00022",
                        "trialNum": 4,
                        "response": "definitely yes",
                        "responseCoded": 3
                    },
                    {
                        "rt": 4718,
                        "swatch": "BI2A00006",
                        "trialNum": 5,
                        "response": "definitely yes",
                        "responseCoded": 3
                    },
                    {
                        "rt": 2354,
                        "swatch": "BI2A00013",
                        "trialNum": 6,
                        "response": "definitely yes",
                        "responseCoded": 3
                    },
                    {
                        "rt": 7887,
                        "swatch": "BI2A00033",
                        "trialNum": 7,
                        "response": "probably yes",
                        "responseCoded": 2
                    },
                    {
                        "rt": 4204,
                        "swatch": "BI2A00032",
                        "trialNum": 8,
                        "response": "probably yes",
                        "responseCoded": 2
                    },
                    {
                        "rt": 2738,
                        "swatch": "BI2A00028",
                        "trialNum": 9,
                        "response": "definitely yes",
                        "responseCoded": 3
                    },
                    {
                        "rt": 8951,
                        "swatch": "BI2A00044",
                        "trialNum": 10,
                        "response": "probably yes",
                        "responseCoded": 2
                    },
                    {
                        "rt": 4952,
                        "swatch": "BI2A00029",
                        "trialNum": 11,
                        "response": "maybe no",
                        "responseCoded": -1
                    },
                    {
                        "rt": 3691,
                        "swatch": "BI2A00038",
                        "trialNum": 12,
                        "response": "definitely no",
                        "responseCoded": 3
                    },
                    {
                        "rt": 4751,
                        "swatch": "BI2A00030",
                        "trialNum": 13,
                        "response": "equally yes/no",
                        "responseCoded": 0
                    },
                    {
                        "rt": 3850,
                        "swatch": "BI2A00023",
                        "trialNum": 14,
                        "response": "probably yes",
                        "responseCoded": 2
                    },
                    {
                        "rt": 3342,
                        "swatch": "BI2A00035",
                        "trialNum": 15,
                        "response": "definitely no",
                        "responseCoded": 3
                    },
                    {
                        "rt": 3236,
                        "swatch": "BI2A00039",
                        "trialNum": 16,
                        "response": "probably no",
                        "responseCoded": -2
                    },
                    {
                        "rt": 4446,
                        "swatch": "BI2A00016",
                        "trialNum": 17,
                        "response": "definitely yes",
                        "responseCoded": 3
                    },
                    {
                        "rt": 3522,
                        "swatch": "BI2A00045",
                        "trialNum": 18,
                        "response": "equally yes/no",
                        "responseCoded": 0
                    },
                    {
                        "rt": 4071,
                        "swatch": "BI2A00001",
                        "trialNum": 19,
                        "response": "definitely yes",
                        "responseCoded": 3
                    },
                    {
                        "rt": 5879,
                        "swatch": "BI2A00040",
                        "trialNum": 20,
                        "response": "probably no",
                        "responseCoded": -2
                    },
                    {
                        "rt": 2982,
                        "swatch": "BI2A00048",
                        "trialNum": 21,
                        "response": "probably no",
                        "responseCoded": -2
                    },
                    {
                        "rt": 3623,
                        "swatch": "BI2A00046",
                        "trialNum": 22,
                        "response": "probably no",
                        "responseCoded": -2
                    },
                    {
                        "rt": 3250,
                        "swatch": "BI2A00019",
                        "trialNum": 23,
                        "response": "definitely yes",
                        "responseCoded": 3
                    },
                    {
                        "rt": 6329,
                        "swatch": "BI2A00037",
                        "trialNum": 24,
                        "response": "maybe yes",
                        "responseCoded": 1
                    },
                    {
                        "rt": 5792,
                        "swatch": "BI2A00017",
                        "trialNum": 25,
                        "response": "definitely yes",
                        "responseCoded": 3
                    },
                    {
                        "rt": 5944,
                        "swatch": "BI2A00036",
                        "trialNum": 26,
                        "response": "equally yes/no",
                        "responseCoded": 0
                    },
                    {
                        "rt": 1776,
                        "swatch": "BI2A00008",
                        "trialNum": 27,
                        "response": "definitely yes",
                        "responseCoded": 3
                    },
                    {
                        "rt": 4212,
                        "swatch": "BI2A00018",
                        "trialNum": 28,
                        "response": "probably yes",
                        "responseCoded": 2
                    },
                    {
                        "rt": 1958,
                        "swatch": "BI2A00015",
                        "trialNum": 29,
                        "response": "definitely yes",
                        "responseCoded": 3
                    },
                    {
                        "rt": 2034,
                        "swatch": "BI2A00026",
                        "trialNum": 30,
                        "response": "definitely yes",
                        "responseCoded": 3
                    },
                    {
                        "rt": 5999,
                        "swatch": "BI2A00043",
                        "trialNum": 31,
                        "response": "probably no",
                        "responseCoded": -2
                    },
                    {
                        "rt": 2710,
                        "swatch": "BI2A00010",
                        "trialNum": 32,
                        "response": "probably yes",
                        "responseCoded": 2
                    },
                    {
                        "rt": 7134,
                        "swatch": "BI2A00041",
                        "trialNum": 33,
                        "response": "equally yes/no",
                        "responseCoded": 0
                    },
                    {
                        "rt": 10150,
                        "swatch": "BI2A00042",
                        "trialNum": 34,
                        "response": "maybe yes",
                        "responseCoded": 1
                    },
                    {
                        "rt": 5314,
                        "swatch": "BI2A00025",
                        "trialNum": 35,
                        "response": "maybe no",
                        "responseCoded": -1
                    },
                    {
                        "rt": 3366,
                        "swatch": "BI2A00034",
                        "trialNum": 36,
                        "response": "probably yes",
                        "responseCoded": 2
                    },
                    {
                        "rt": 2299,
                        "swatch": "BI2A00027",
                        "trialNum": 37,
                        "response": "probably yes",
                        "responseCoded": 2
                    },
                    {
                        "rt": 3125,
                        "swatch": "BI2A00024",
                        "trialNum": 38,
                        "response": "definitely yes",
                        "responseCoded": 3
                    },
                    {
                        "rt": 2298,
                        "swatch": "BI2A00020",
                        "trialNum": 39,
                        "response": "definitely yes",
                        "responseCoded": 3
                    },
                    {
                        "rt": 2605,
                        "swatch": "BI2A00021",
                        "trialNum": 40,
                        "response": "probably yes",
                        "responseCoded": 2
                    },
                    {
                        "rt": 1749,
                        "swatch": "BI2A00012",
                        "trialNum": 41,
                        "response": "definitely yes",
                        "responseCoded": 3
                    },
                    {
                        "rt": 6639,
                        "swatch": "BI2A00047",
                        "trialNum": 42,
                        "response": "maybe no",
                        "responseCoded": -1
                    },
                    {
                        "rt": 1897,
                        "swatch": "BI2A00002",
                        "trialNum": 43,
                        "response": "definitely yes",
                        "responseCoded": 3
                    },
                    {
                        "rt": 1406,
                        "swatch": "BI2A00004",
                        "trialNum": 44,
                        "response": "definitely yes",
                        "responseCoded": 3
                    },
                    {
                        "rt": 1398,
                        "swatch": "BI2A00007",
                        "trialNum": 45,
                        "response": "definitely yes",
                        "responseCoded": 3
                    },
                    {
                        "rt": 1254,
                        "swatch": "BI2A00009",
                        "trialNum": 46,
                        "response": "definitely yes",
                        "responseCoded": 3
                    },
                    {
                        "rt": 3758,
                        "swatch": "BI2A00031",
                        "trialNum": 47,
                        "response": "maybe no",
                        "responseCoded": -1
                    },
                    {
                        "rt": 2456,
                        "swatch": "BI2A00011",
                        "trialNum": 48,
                        "response": "definitely yes",
                        "responseCoded": 3
                    }
                ],
                "gender": "female",
                "age": "",
                "comments": "",
                "religion": [
                    "none"
                ],
                "condition": "pain",
                "fingerprintData": {},
                "ethnicity": [
                    "white"
                ]
            }
        }
    },
    "AcceptTime": "2015-03-03T11:04:41Z",
    "HITId": "39TX062QX1XDAW3RDVV42F2R1TJX3X",
    "Assignment": "",
    "AssignmentStatus": "Approved",
    "SubmitTime": "2015-03-03T11:09:19Z"
}