{
    "ApprovalTime": "2015-03-03T11:17:37Z",
    "AutoApprovalTime": "2015-03-03T11:17:14Z",
    "AssignmentId": "358UUM7WR0CD03GVWAX3FYO2ISCR71",
    "WorkerId": "AMKFEE9WYSHVO",
    "answers": {
        "data": {
            "trials": [],
            "condition": "happy",
            "allData": {
                "education": "grad_degree",
                "englishNative": "yes_only",
                "trialData": [
                    {
                        "rt": 4098,
                        "swatch": "BI2A00048",
                        "trialNum": 1,
                        "response": "probably no",
                        "responseCoded": -2
                    },
                    {
                        "rt": 2181,
                        "swatch": "BI2A00015",
                        "trialNum": 2,
                        "response": "maybe yes",
                        "responseCoded": 1
                    },
                    {
                        "rt": 2509,
                        "swatch": "BI2A00023",
                        "trialNum": 3,
                        "response": "probably no",
                        "responseCoded": -2
                    },
                    {
                        "rt": 2887,
                        "swatch": "BI2A00047",
                        "trialNum": 4,
                        "response": "probably no",
                        "responseCoded": -2
                    },
                    {
                        "rt": 3733,
                        "swatch": "BI2A00042",
                        "trialNum": 5,
                        "response": "definitely no",
                        "responseCoded": 3
                    },
                    {
                        "rt": 2551,
                        "swatch": "BI2A00027",
                        "trialNum": 6,
                        "response": "probably no",
                        "responseCoded": -2
                    },
                    {
                        "rt": 1496,
                        "swatch": "BI2A00046",
                        "trialNum": 7,
                        "response": "definitely no",
                        "responseCoded": 3
                    },
                    {
                        "rt": 3672,
                        "swatch": "BI2A00012",
                        "trialNum": 8,
                        "response": "definitely no",
                        "responseCoded": 3
                    },
                    {
                        "rt": 2227,
                        "swatch": "BI2A00037",
                        "trialNum": 9,
                        "response": "probably no",
                        "responseCoded": -2
                    },
                    {
                        "rt": 1702,
                        "swatch": "BI2A00040",
                        "trialNum": 10,
                        "response": "definitely no",
                        "responseCoded": 3
                    },
                    {
                        "rt": 1719,
                        "swatch": "BI2A00043",
                        "trialNum": 11,
                        "response": "probably no",
                        "responseCoded": -2
                    },
                    {
                        "rt": 2478,
                        "swatch": "BI2A00011",
                        "trialNum": 12,
                        "response": "probably no",
                        "responseCoded": -2
                    },
                    {
                        "rt": 1552,
                        "swatch": "BI2A00044",
                        "trialNum": 13,
                        "response": "definitely no",
                        "responseCoded": 3
                    },
                    {
                        "rt": 2001,
                        "swatch": "BI2A00010",
                        "trialNum": 14,
                        "response": "definitely no",
                        "responseCoded": 3
                    },
                    {
                        "rt": 3314,
                        "swatch": "BI2A00039",
                        "trialNum": 15,
                        "response": "definitely no",
                        "responseCoded": 3
                    },
                    {
                        "rt": 2237,
                        "swatch": "BI2A00006",
                        "trialNum": 16,
                        "response": "definitely no",
                        "responseCoded": 3
                    },
                    {
                        "rt": 1766,
                        "swatch": "BI2A00035",
                        "trialNum": 17,
                        "response": "definitely no",
                        "responseCoded": 3
                    },
                    {
                        "rt": 1655,
                        "swatch": "BI2A00019",
                        "trialNum": 18,
                        "response": "definitely no",
                        "responseCoded": 3
                    },
                    {
                        "rt": 2380,
                        "swatch": "BI2A00016",
                        "trialNum": 19,
                        "response": "definitely no",
                        "responseCoded": 3
                    },
                    {
                        "rt": 5625,
                        "swatch": "BI2A00013",
                        "trialNum": 20,
                        "response": "definitely yes",
                        "responseCoded": 3
                    },
                    {
                        "rt": 9468,
                        "swatch": "BI2A00007",
                        "trialNum": 21,
                        "response": "probably yes",
                        "responseCoded": 2
                    },
                    {
                        "rt": 6580,
                        "swatch": "BI2A00021",
                        "trialNum": 22,
                        "response": "definitely no",
                        "responseCoded": 3
                    },
                    {
                        "rt": 2890,
                        "swatch": "BI2A00029",
                        "trialNum": 23,
                        "response": "definitely no",
                        "responseCoded": 3
                    },
                    {
                        "rt": 3083,
                        "swatch": "BI2A00038",
                        "trialNum": 24,
                        "response": "definitely no",
                        "responseCoded": 3
                    },
                    {
                        "rt": 4494,
                        "swatch": "BI2A00008",
                        "trialNum": 25,
                        "response": "definitely yes",
                        "responseCoded": 3
                    },
                    {
                        "rt": 9345,
                        "swatch": "BI2A00025",
                        "trialNum": 26,
                        "response": "probably no",
                        "responseCoded": -2
                    },
                    {
                        "rt": 1569,
                        "swatch": "BI2A00033",
                        "trialNum": 27,
                        "response": "probably no",
                        "responseCoded": -2
                    },
                    {
                        "rt": 14350,
                        "swatch": "BI2A00014",
                        "trialNum": 28,
                        "response": "maybe yes",
                        "responseCoded": 1
                    },
                    {
                        "rt": 4913,
                        "swatch": "BI2A00028",
                        "trialNum": 29,
                        "response": "maybe yes",
                        "responseCoded": 1
                    },
                    {
                        "rt": 5537,
                        "swatch": "BI2A00009",
                        "trialNum": 30,
                        "response": "definitely yes",
                        "responseCoded": 3
                    },
                    {
                        "rt": 6491,
                        "swatch": "BI2A00024",
                        "trialNum": 31,
                        "response": "maybe yes",
                        "responseCoded": 1
                    },
                    {
                        "rt": 3492,
                        "swatch": "BI2A00005",
                        "trialNum": 32,
                        "response": "definitely yes",
                        "responseCoded": 3
                    },
                    {
                        "rt": 5242,
                        "swatch": "BI2A00030",
                        "trialNum": 33,
                        "response": "definitely no",
                        "responseCoded": 3
                    },
                    {
                        "rt": 7130,
                        "swatch": "BI2A00032",
                        "trialNum": 34,
                        "response": "maybe no",
                        "responseCoded": -1
                    },
                    {
                        "rt": 6434,
                        "swatch": "BI2A00020",
                        "trialNum": 35,
                        "response": "definitely yes",
                        "responseCoded": 3
                    },
                    {
                        "rt": 10008,
                        "swatch": "BI2A00034",
                        "trialNum": 36,
                        "response": "probably no",
                        "responseCoded": -2
                    },
                    {
                        "rt": 4436,
                        "swatch": "BI2A00002",
                        "trialNum": 37,
                        "response": "probably yes",
                        "responseCoded": 2
                    },
                    {
                        "rt": 4068,
                        "swatch": "BI2A00004",
                        "trialNum": 38,
                        "response": "definitely yes",
                        "responseCoded": 3
                    },
                    {
                        "rt": 14149,
                        "swatch": "BI2A00031",
                        "trialNum": 39,
                        "response": "definitely no",
                        "responseCoded": 3
                    },
                    {
                        "rt": 4639,
                        "swatch": "BI2A00045",
                        "trialNum": 40,
                        "response": "definitely no",
                        "responseCoded": 3
                    },
                    {
                        "rt": 7119,
                        "swatch": "BI2A00018",
                        "trialNum": 41,
                        "response": "maybe yes",
                        "responseCoded": 1
                    },
                    {
                        "rt": 4377,
                        "swatch": "BI2A00026",
                        "trialNum": 42,
                        "response": "probably yes",
                        "responseCoded": 2
                    },
                    {
                        "rt": 3355,
                        "swatch": "BI2A00041",
                        "trialNum": 43,
                        "response": "definitely no",
                        "responseCoded": 3
                    },
                    {
                        "rt": 5315,
                        "swatch": "BI2A00017",
                        "trialNum": 44,
                        "response": "probably no",
                        "responseCoded": -2
                    },
                    {
                        "rt": 9087,
                        "swatch": "BI2A00036",
                        "trialNum": 45,
                        "response": "definitely no",
                        "responseCoded": 3
                    },
                    {
                        "rt": 5340,
                        "swatch": "BI2A00003",
                        "trialNum": 46,
                        "response": "definitely yes",
                        "responseCoded": 3
                    },
                    {
                        "rt": 2469,
                        "swatch": "BI2A00022",
                        "trialNum": 47,
                        "response": "maybe yes",
                        "responseCoded": 1
                    },
                    {
                        "rt": 5779,
                        "swatch": "BI2A00001",
                        "trialNum": 48,
                        "response": "definitely yes",
                        "responseCoded": 3
                    }
                ],
                "gender": "female",
                "age": "34",
                "comments": "",
                "religion": [
                    "christianity_protestant"
                ],
                "condition": "happy",
                "fingerprintData": {
                    "ip": "24.243.174.132",
                    "screenHeight": 854,
                    "plugins": [],
                    "timezone": 360,
                    "colorDepth": 32,
                    "screenWidth": 534,
                    "geo": {
                        "city": "Copperas Cove",
                        "region_code": "TX",
                        "region_name": "Texas",
                        "ip": "24.243.174.132",
                        "time_zone": "America/Chicago",
                        "longitude": -97.993,
                        "metro_code": 625,
                        "latitude": 31.2,
                        "country_code": "US",
                        "country_name": "United States",
                        "zip_code": "76522"
                    },
                    "browser": "Mozilla/5.0 (Linux; U; Android 4.4.3; en-us; KFSOWI Build/KTU84M) AppleWebKit/537.36 (KHTML, like Gecko) Silk/3.46 like Chrome/37.0.2026.117 Safari/537.36"
                },
                "ethnicity": [
                    "white"
                ]
            }
        }
    },
    "AcceptTime": "2015-03-03T11:05:57Z",
    "HITId": "39TX062QX1XDAW3RDVV42F2R1TJX3X",
    "Assignment": "",
    "AssignmentStatus": "Approved",
    "SubmitTime": "2015-03-03T11:12:14Z"
}