{
    "ApprovalTime": "2015-03-03T11:22:37Z",
    "AutoApprovalTime": "2015-03-03T11:22:33Z",
    "AssignmentId": "35H6S234SB95RG4SGTF86JJAVZ3653",
    "WorkerId": "A1IHMOQNKWDYF7",
    "answers": {
        "data": {
            "trials": [],
            "condition": "hungry",
            "allData": {
                "education": "college_some",
                "englishNative": "yes_only",
                "trialData": [
                    {
                        "rt": 18251,
                        "swatch": "BI2A00032",
                        "trialNum": 1,
                        "response": "probably no",
                        "responseCoded": -2
                    },
                    {
                        "rt": 7041,
                        "swatch": "BI2A00008",
                        "trialNum": 2,
                        "response": "probably yes",
                        "responseCoded": 2
                    },
                    {
                        "rt": 5965,
                        "swatch": "BI2A00016",
                        "trialNum": 3,
                        "response": "probably yes",
                        "responseCoded": 2
                    },
                    {
                        "rt": 5585,
                        "swatch": "BI2A00027",
                        "trialNum": 4,
                        "response": "definitely no",
                        "responseCoded": 3
                    },
                    {
                        "rt": 5504,
                        "swatch": "BI2A00042",
                        "trialNum": 5,
                        "response": "definitely no",
                        "responseCoded": 3
                    },
                    {
                        "rt": 6956,
                        "swatch": "BI2A00030",
                        "trialNum": 6,
                        "response": "definitely no",
                        "responseCoded": 3
                    },
                    {
                        "rt": 4705,
                        "swatch": "BI2A00023",
                        "trialNum": 7,
                        "response": "maybe yes",
                        "responseCoded": 1
                    },
                    {
                        "rt": 5423,
                        "swatch": "BI2A00024",
                        "trialNum": 8,
                        "response": "probably yes",
                        "responseCoded": 2
                    },
                    {
                        "rt": 5127,
                        "swatch": "BI2A00022",
                        "trialNum": 9,
                        "response": "probably no",
                        "responseCoded": -2
                    },
                    {
                        "rt": 5996,
                        "swatch": "BI2A00007",
                        "trialNum": 10,
                        "response": "definitely yes",
                        "responseCoded": 3
                    },
                    {
                        "rt": 2766,
                        "swatch": "BI2A00001",
                        "trialNum": 11,
                        "response": "definitely yes",
                        "responseCoded": 3
                    },
                    {
                        "rt": 11006,
                        "swatch": "BI2A00034",
                        "trialNum": 12,
                        "response": "equally yes/no",
                        "responseCoded": 0
                    },
                    {
                        "rt": 7587,
                        "swatch": "BI2A00036",
                        "trialNum": 13,
                        "response": "maybe no",
                        "responseCoded": -1
                    },
                    {
                        "rt": 4316,
                        "swatch": "BI2A00046",
                        "trialNum": 14,
                        "response": "definitely no",
                        "responseCoded": 3
                    },
                    {
                        "rt": 5973,
                        "swatch": "BI2A00010",
                        "trialNum": 15,
                        "response": "probably no",
                        "responseCoded": -2
                    },
                    {
                        "rt": 2227,
                        "swatch": "BI2A00031",
                        "trialNum": 16,
                        "response": "definitely no",
                        "responseCoded": 3
                    },
                    {
                        "rt": 2692,
                        "swatch": "BI2A00043",
                        "trialNum": 17,
                        "response": "definitely no",
                        "responseCoded": 3
                    },
                    {
                        "rt": 3332,
                        "swatch": "BI2A00041",
                        "trialNum": 18,
                        "response": "definitely no",
                        "responseCoded": 3
                    },
                    {
                        "rt": 2435,
                        "swatch": "BI2A00045",
                        "trialNum": 19,
                        "response": "definitely no",
                        "responseCoded": 3
                    },
                    {
                        "rt": 3163,
                        "swatch": "BI2A00003",
                        "trialNum": 20,
                        "response": "definitely yes",
                        "responseCoded": 3
                    },
                    {
                        "rt": 2527,
                        "swatch": "BI2A00002",
                        "trialNum": 21,
                        "response": "definitely yes",
                        "responseCoded": 3
                    },
                    {
                        "rt": 2774,
                        "swatch": "BI2A00048",
                        "trialNum": 22,
                        "response": "definitely no",
                        "responseCoded": 3
                    },
                    {
                        "rt": 5461,
                        "swatch": "BI2A00025",
                        "trialNum": 23,
                        "response": "maybe yes",
                        "responseCoded": 1
                    },
                    {
                        "rt": 5967,
                        "swatch": "BI2A00019",
                        "trialNum": 24,
                        "response": "definitely yes",
                        "responseCoded": 3
                    },
                    {
                        "rt": 5860,
                        "swatch": "BI2A00037",
                        "trialNum": 25,
                        "response": "definitely no",
                        "responseCoded": 3
                    },
                    {
                        "rt": 5431,
                        "swatch": "BI2A00026",
                        "trialNum": 26,
                        "response": "probably no",
                        "responseCoded": -2
                    },
                    {
                        "rt": 5286,
                        "swatch": "BI2A00012",
                        "trialNum": 27,
                        "response": "probably no",
                        "responseCoded": -2
                    },
                    {
                        "rt": 7301,
                        "swatch": "BI2A00047",
                        "trialNum": 28,
                        "response": "maybe no",
                        "responseCoded": -1
                    },
                    {
                        "rt": 2660,
                        "swatch": "BI2A00044",
                        "trialNum": 29,
                        "response": "definitely no",
                        "responseCoded": 3
                    },
                    {
                        "rt": 3167,
                        "swatch": "BI2A00038",
                        "trialNum": 30,
                        "response": "definitely no",
                        "responseCoded": 3
                    },
                    {
                        "rt": 2754,
                        "swatch": "BI2A00017",
                        "trialNum": 31,
                        "response": "definitely no",
                        "responseCoded": 3
                    },
                    {
                        "rt": 2356,
                        "swatch": "BI2A00039",
                        "trialNum": 32,
                        "response": "definitely no",
                        "responseCoded": 3
                    },
                    {
                        "rt": 7053,
                        "swatch": "BI2A00005",
                        "trialNum": 33,
                        "response": "probably yes",
                        "responseCoded": 2
                    },
                    {
                        "rt": 5354,
                        "swatch": "BI2A00015",
                        "trialNum": 34,
                        "response": "equally yes/no",
                        "responseCoded": 0
                    },
                    {
                        "rt": 3294,
                        "swatch": "BI2A00018",
                        "trialNum": 35,
                        "response": "definitely no",
                        "responseCoded": 3
                    },
                    {
                        "rt": 2102,
                        "swatch": "BI2A00033",
                        "trialNum": 36,
                        "response": "definitely no",
                        "responseCoded": 3
                    },
                    {
                        "rt": 4551,
                        "swatch": "BI2A00014",
                        "trialNum": 37,
                        "response": "definitely no",
                        "responseCoded": 3
                    },
                    {
                        "rt": 3443,
                        "swatch": "BI2A00011",
                        "trialNum": 38,
                        "response": "probably yes",
                        "responseCoded": 2
                    },
                    {
                        "rt": 5441,
                        "swatch": "BI2A00029",
                        "trialNum": 39,
                        "response": "maybe yes",
                        "responseCoded": 1
                    },
                    {
                        "rt": 2613,
                        "swatch": "BI2A00013",
                        "trialNum": 40,
                        "response": "probably yes",
                        "responseCoded": 2
                    },
                    {
                        "rt": 2163,
                        "swatch": "BI2A00035",
                        "trialNum": 41,
                        "response": "definitely no",
                        "responseCoded": 3
                    },
                    {
                        "rt": 3919,
                        "swatch": "BI2A00009",
                        "trialNum": 42,
                        "response": "probably yes",
                        "responseCoded": 2
                    },
                    {
                        "rt": 2327,
                        "swatch": "BI2A00040",
                        "trialNum": 43,
                        "response": "definitely no",
                        "responseCoded": 3
                    },
                    {
                        "rt": 4429,
                        "swatch": "BI2A00006",
                        "trialNum": 44,
                        "response": "definitely yes",
                        "responseCoded": 3
                    },
                    {
                        "rt": 8227,
                        "swatch": "BI2A00028",
                        "trialNum": 45,
                        "response": "equally yes/no",
                        "responseCoded": 0
                    },
                    {
                        "rt": 2543,
                        "swatch": "BI2A00021",
                        "trialNum": 46,
                        "response": "definitely no",
                        "responseCoded": 3
                    },
                    {
                        "rt": 5297,
                        "swatch": "BI2A00020",
                        "trialNum": 47,
                        "response": "equally yes/no",
                        "responseCoded": 0
                    },
                    {
                        "rt": 2800,
                        "swatch": "BI2A00004",
                        "trialNum": 48,
                        "response": "probably yes",
                        "responseCoded": 2
                    }
                ],
                "gender": "male",
                "age": "34",
                "comments": "",
                "religion": [
                    "none"
                ],
                "condition": "hungry",
                "fingerprintData": {
                    "ip": "76.113.15.141",
                    "screenHeight": 800,
                    "plugins": [
                        {
                            "description": "Enables Widevine licenses for playback of HTML audio/video content. (version: 1.4.6.758)",
                            "filename": "widevinecdmadapter.plugin"
                        },
                        {
                            "description": "This plugin allows you to securely access other computers that have been shared with you. To use this plugin you must first install the <a href=\"https://chrome.google.com/remotedesktop\">Chrome Remote Desktop</a> webapp.",
                            "filename": "internal-remoting-viewer"
                        },
                        {
                            "description": "",
                            "filename": "internal-nacl-plugin"
                        },
                        {
                            "description": "",
                            "filename": "PDF.plugin"
                        },
                        {
                            "description": "Provides information about the default web browser",
                            "filename": "Default Browser.plugin"
                        },
                        {
                            "description": "Shockwave Flash 16.0 r0",
                            "filename": "Flash Player.plugin"
                        },
                        {
                            "description": "Version 5.40.2.0",
                            "filename": "googletalkbrowserplugin.plugin"
                        },
                        {
                            "description": "Displays Java applet content, or a placeholder if Java is not installed.",
                            "filename": "JavaAppletPlugin.plugin"
                        },
                        {
                            "description": "Version 5.40.2.0",
                            "filename": "o1dbrowserplugin.plugin"
                        }
                    ],
                    "timezone": 420,
                    "colorDepth": 24,
                    "screenWidth": 1280,
                    "geo": {
                        "city": "Albuquerque",
                        "region_code": "NM",
                        "region_name": "New Mexico",
                        "ip": "76.113.15.141",
                        "time_zone": "America/Denver",
                        "longitude": -106.624,
                        "metro_code": 790,
                        "latitude": 35.059,
                        "country_code": "US",
                        "country_name": "United States",
                        "zip_code": "87106"
                    },
                    "browser": "Mozilla/5.0 (Macintosh; Intel Mac OS X 10_10_2) AppleWebKit/537.36 (KHTML, like Gecko) Chrome/40.0.2214.115 Safari/537.36"
                },
                "ethnicity": [
                    "white"
                ]
            }
        }
    },
    "AcceptTime": "2015-03-03T11:12:05Z",
    "HITId": "39TX062QX1XDAW3RDVV42F2R1TJX3X",
    "Assignment": "",
    "AssignmentStatus": "Approved",
    "SubmitTime": "2015-03-03T11:17:33Z"
}