{
    "ApprovalTime": "2015-03-03T11:17:37Z",
    "AutoApprovalTime": "2015-03-03T11:16:47Z",
    "AssignmentId": "36AHBNMV1SL2EDTR1ISJNMRV7QUDYI",
    "WorkerId": "A168Z2GREJUB5I",
    "answers": {
        "data": {
            "trials": [],
            "condition": "think",
            "allData": {
                "education": "college_bachDegree",
                "englishNative": "yes_multiple",
                "trialData": [
                    {
                        "rt": 11866,
                        "swatch": "BI2A00001",
                        "trialNum": 1,
                        "response": "equally yes/no",
                        "responseCoded": 0
                    },
                    {
                        "rt": 4167,
                        "swatch": "BI2A00039",
                        "trialNum": 2,
                        "response": "maybe yes",
                        "responseCoded": 1
                    },
                    {
                        "rt": 2733,
                        "swatch": "BI2A00017",
                        "trialNum": 3,
                        "response": "maybe yes",
                        "responseCoded": 1
                    },
                    {
                        "rt": 1968,
                        "swatch": "BI2A00033",
                        "trialNum": 4,
                        "response": "maybe yes",
                        "responseCoded": 1
                    },
                    {
                        "rt": 2401,
                        "swatch": "BI2A00037",
                        "trialNum": 5,
                        "response": "maybe yes",
                        "responseCoded": 1
                    },
                    {
                        "rt": 1433,
                        "swatch": "BI2A00011",
                        "trialNum": 6,
                        "response": "maybe yes",
                        "responseCoded": 1
                    },
                    {
                        "rt": 2834,
                        "swatch": "BI2A00036",
                        "trialNum": 7,
                        "response": "maybe yes",
                        "responseCoded": 1
                    },
                    {
                        "rt": 1451,
                        "swatch": "BI2A00025",
                        "trialNum": 8,
                        "response": "maybe yes",
                        "responseCoded": 1
                    },
                    {
                        "rt": 1748,
                        "swatch": "BI2A00012",
                        "trialNum": 9,
                        "response": "maybe yes",
                        "responseCoded": 1
                    },
                    {
                        "rt": 1584,
                        "swatch": "BI2A00026",
                        "trialNum": 10,
                        "response": "maybe yes",
                        "responseCoded": 1
                    },
                    {
                        "rt": 1400,
                        "swatch": "BI2A00029",
                        "trialNum": 11,
                        "response": "maybe yes",
                        "responseCoded": 1
                    },
                    {
                        "rt": 1584,
                        "swatch": "BI2A00002",
                        "trialNum": 12,
                        "response": "maybe yes",
                        "responseCoded": 1
                    },
                    {
                        "rt": 2099,
                        "swatch": "BI2A00031",
                        "trialNum": 13,
                        "response": "maybe yes",
                        "responseCoded": 1
                    },
                    {
                        "rt": 3518,
                        "swatch": "BI2A00038",
                        "trialNum": 14,
                        "response": "maybe yes",
                        "responseCoded": 1
                    },
                    {
                        "rt": 1584,
                        "swatch": "BI2A00019",
                        "trialNum": 15,
                        "response": "maybe yes",
                        "responseCoded": 1
                    },
                    {
                        "rt": 2916,
                        "swatch": "BI2A00021",
                        "trialNum": 16,
                        "response": "maybe yes",
                        "responseCoded": 1
                    },
                    {
                        "rt": 1170,
                        "swatch": "BI2A00005",
                        "trialNum": 17,
                        "response": "maybe yes",
                        "responseCoded": 1
                    },
                    {
                        "rt": 1131,
                        "swatch": "BI2A00014",
                        "trialNum": 18,
                        "response": "maybe yes",
                        "responseCoded": 1
                    },
                    {
                        "rt": 1699,
                        "swatch": "BI2A00042",
                        "trialNum": 19,
                        "response": "maybe yes",
                        "responseCoded": 1
                    },
                    {
                        "rt": 1285,
                        "swatch": "BI2A00035",
                        "trialNum": 20,
                        "response": "maybe yes",
                        "responseCoded": 1
                    },
                    {
                        "rt": 2400,
                        "swatch": "BI2A00041",
                        "trialNum": 21,
                        "response": "maybe yes",
                        "responseCoded": 1
                    },
                    {
                        "rt": 1182,
                        "swatch": "BI2A00007",
                        "trialNum": 22,
                        "response": "maybe yes",
                        "responseCoded": 1
                    },
                    {
                        "rt": 2570,
                        "swatch": "BI2A00010",
                        "trialNum": 23,
                        "response": "equally yes/no",
                        "responseCoded": 0
                    },
                    {
                        "rt": 2698,
                        "swatch": "BI2A00032",
                        "trialNum": 24,
                        "response": "equally yes/no",
                        "responseCoded": 0
                    },
                    {
                        "rt": 1608,
                        "swatch": "BI2A00013",
                        "trialNum": 25,
                        "response": "maybe yes",
                        "responseCoded": 1
                    },
                    {
                        "rt": 2045,
                        "swatch": "BI2A00027",
                        "trialNum": 26,
                        "response": "equally yes/no",
                        "responseCoded": 0
                    },
                    {
                        "rt": 1698,
                        "swatch": "BI2A00006",
                        "trialNum": 27,
                        "response": "maybe yes",
                        "responseCoded": 1
                    },
                    {
                        "rt": 4286,
                        "swatch": "BI2A00023",
                        "trialNum": 28,
                        "response": "equally yes/no",
                        "responseCoded": 0
                    },
                    {
                        "rt": 4250,
                        "swatch": "BI2A00047",
                        "trialNum": 29,
                        "response": "maybe yes",
                        "responseCoded": 1
                    },
                    {
                        "rt": 1750,
                        "swatch": "BI2A00022",
                        "trialNum": 30,
                        "response": "equally yes/no",
                        "responseCoded": 0
                    },
                    {
                        "rt": 2700,
                        "swatch": "BI2A00018",
                        "trialNum": 31,
                        "response": "maybe yes",
                        "responseCoded": 1
                    },
                    {
                        "rt": 1683,
                        "swatch": "BI2A00030",
                        "trialNum": 32,
                        "response": "equally yes/no",
                        "responseCoded": 0
                    },
                    {
                        "rt": 2067,
                        "swatch": "BI2A00004",
                        "trialNum": 33,
                        "response": "maybe yes",
                        "responseCoded": 1
                    },
                    {
                        "rt": 1482,
                        "swatch": "BI2A00008",
                        "trialNum": 34,
                        "response": "maybe yes",
                        "responseCoded": 1
                    },
                    {
                        "rt": 2319,
                        "swatch": "BI2A00024",
                        "trialNum": 35,
                        "response": "maybe yes",
                        "responseCoded": 1
                    },
                    {
                        "rt": 1629,
                        "swatch": "BI2A00043",
                        "trialNum": 36,
                        "response": "maybe yes",
                        "responseCoded": 1
                    },
                    {
                        "rt": 5241,
                        "swatch": "BI2A00028",
                        "trialNum": 37,
                        "response": "equally yes/no",
                        "responseCoded": 0
                    },
                    {
                        "rt": 1631,
                        "swatch": "BI2A00046",
                        "trialNum": 38,
                        "response": "maybe yes",
                        "responseCoded": 1
                    },
                    {
                        "rt": 3005,
                        "swatch": "BI2A00009",
                        "trialNum": 39,
                        "response": "probably yes",
                        "responseCoded": 2
                    },
                    {
                        "rt": 1249,
                        "swatch": "BI2A00045",
                        "trialNum": 40,
                        "response": "probably yes",
                        "responseCoded": 2
                    },
                    {
                        "rt": 3781,
                        "swatch": "BI2A00034",
                        "trialNum": 41,
                        "response": "maybe yes",
                        "responseCoded": 1
                    },
                    {
                        "rt": 2067,
                        "swatch": "BI2A00020",
                        "trialNum": 42,
                        "response": "probably yes",
                        "responseCoded": 2
                    },
                    {
                        "rt": 1017,
                        "swatch": "BI2A00003",
                        "trialNum": 43,
                        "response": "probably yes",
                        "responseCoded": 2
                    },
                    {
                        "rt": 1566,
                        "swatch": "BI2A00040",
                        "trialNum": 44,
                        "response": "probably yes",
                        "responseCoded": 2
                    },
                    {
                        "rt": 1901,
                        "swatch": "BI2A00015",
                        "trialNum": 45,
                        "response": "maybe yes",
                        "responseCoded": 1
                    },
                    {
                        "rt": 3266,
                        "swatch": "BI2A00016",
                        "trialNum": 46,
                        "response": "probably yes",
                        "responseCoded": 2
                    },
                    {
                        "rt": 1738,
                        "swatch": "BI2A00048",
                        "trialNum": 47,
                        "response": "probably yes",
                        "responseCoded": 2
                    },
                    {
                        "rt": 1545,
                        "swatch": "BI2A00044",
                        "trialNum": 48,
                        "response": "probably yes",
                        "responseCoded": 2
                    }
                ],
                "gender": "female",
                "age": "27",
                "comments": "N/A",
                "religion": [
                    "christianity_catholic"
                ],
                "condition": "think",
                "fingerprintData": {
                    "ip": "113.193.21.41",
                    "screenHeight": 768,
                    "plugins": [
                        {
                            "description": "Enables Widevine licenses for playback of HTML audio/video content. (version: 1.4.6.758)",
                            "filename": "widevinecdmadapter.dll"
                        },
                        {
                            "description": "Shockwave Flash 16.0 r0",
                            "filename": "pepflashplayer.dll"
                        },
                        {
                            "description": "This plugin allows you to securely access other computers that have been shared with you. To use this plugin you must first install the <a href=\"https://chrome.google.com/remotedesktop\">Chrome Remote Desktop</a> webapp.",
                            "filename": "internal-remoting-viewer"
                        },
                        {
                            "description": "",
                            "filename": "internal-nacl-plugin"
                        },
                        {
                            "description": "",
                            "filename": "pdf.dll"
                        },
                        {
                            "description": "Coupons, Inc. Coupon Printer 5.0.2.0",
                            "filename": "npMozCouponPrinter.dll"
                        },
                        {
                            "description": "The QuickTime Plugin allows you to view a wide variety of multimedia content in Web pages. For more information, visit the <A HREF=http://www.apple.com/quicktime/>QuickTime</A> Web site.",
                            "filename": "npqtplugin.dll"
                        },
                        {
                            "description": "The QuickTime Plugin allows you to view a wide variety of multimedia content in Web pages. For more information, visit the <A HREF=http://www.apple.com/quicktime/>QuickTime</A> Web site.",
                            "filename": "npqtplugin2.dll"
                        },
                        {
                            "description": "The QuickTime Plugin allows you to view a wide variety of multimedia content in Web pages. For more information, visit the <A HREF=http://www.apple.com/quicktime/>QuickTime</A> Web site.",
                            "filename": "npqtplugin3.dll"
                        },
                        {
                            "description": "The QuickTime Plugin allows you to view a wide variety of multimedia content in Web pages. For more information, visit the <A HREF=http://www.apple.com/quicktime/>QuickTime</A> Web site.",
                            "filename": "npqtplugin4.dll"
                        },
                        {
                            "description": "The QuickTime Plugin allows you to view a wide variety of multimedia content in Web pages. For more information, visit the <A HREF=http://www.apple.com/quicktime/>QuickTime</A> Web site.",
                            "filename": "npqtplugin5.dll"
                        },
                        {
                            "description": "The plugin allows you to have a better experience with Microsoft SharePoint",
                            "filename": "NPSPWRAP.DLL"
                        },
                        {
                            "description": "npsitesafety",
                            "filename": "npsitesafety.dll"
                        },
                        {
                            "description": "A plugin to detect whether the Adobe Application Manager is installed on this machine.",
                            "filename": "npAdobeAAMDetect32.dll"
                        },
                        {
                            "description": "GEPlugin",
                            "filename": "npgeplugin.dll"
                        },
                        {
                            "description": "Google Update",
                            "filename": "npGoogleUpdate3.dll"
                        },
                        {
                            "description": "NPRuntime Script Plug-in Library for Java(TM) Deploy",
                            "filename": "npDeployJava1.dll"
                        },
                        {
                            "description": "Next Generation Java Plug-in 10.45.2 for Mozilla browsers",
                            "filename": "npjp2.dll"
                        },
                        {
                            "description": "The plugin allows you to have a better experience with Microsoft Lync",
                            "filename": "npmeetingjoinpluginoc.dll"
                        },
                        {
                            "description": "iTunes Detector Plug-in",
                            "filename": "npitunes.dll"
                        },
                        {
                            "description": "Facebook Video Calling Plugin",
                            "filename": "npFacebookVideoCalling.dll"
                        },
                        {
                            "description": "2,5,3,1",
                            "filename": "npTVUAx.dll"
                        },
                        {
                            "description": "5.1.20913.0",
                            "filename": "npctrl.dll"
                        }
                    ],
                    "timezone": -330,
                    "colorDepth": 24,
                    "screenWidth": 1366,
                    "geo": {
                        "city": "Kolkata",
                        "region_code": "WB",
                        "region_name": "West Bengal",
                        "ip": "113.193.21.41",
                        "time_zone": "Asia/Kolkata",
                        "longitude": 88.37,
                        "metro_code": 0,
                        "latitude": 22.57,
                        "country_code": "IN",
                        "country_name": "India",
                        "zip_code": ""
                    },
                    "browser": "Mozilla/5.0 (Windows NT 6.1; WOW64) AppleWebKit/537.36 (KHTML, like Gecko) Chrome/40.0.2214.115 Safari/537.36"
                },
                "ethnicity": [
                    "hispanicLatino"
                ]
            }
        }
    },
    "AcceptTime": "2015-03-03T11:05:36Z",
    "HITId": "39TX062QX1XDAW3RDVV42F2R1TJX3X",
    "Assignment": "",
    "AssignmentStatus": "Approved",
    "SubmitTime": "2015-03-03T11:11:47Z"
}