{
    "ApprovalTime": "2015-03-03T11:12:36Z",
    "AutoApprovalTime": "2015-03-03T11:08:57Z",
    "AssignmentId": "36U2A8VAG28ASJZ1TZE6RZMLRYQKYZ",
    "WorkerId": "A1R0689JPSQ3OF",
    "answers": {
        "data": {
            "trials": [],
            "condition": "happy",
            "allData": {
                "education": "college_bachDegree",
                "englishNative": "yes_only",
                "trialData": [
                    {
                        "rt": 18094,
                        "swatch": "BI2A00040",
                        "trialNum": 1,
                        "response": "probably no",
                        "responseCoded": -2
                    },
                    {
                        "rt": 14803,
                        "swatch": "BI2A00022",
                        "trialNum": 2,
                        "response": "equally yes/no",
                        "responseCoded": 0
                    },
                    {
                        "rt": 4775,
                        "swatch": "BI2A00029",
                        "trialNum": 3,
                        "response": "probably no",
                        "responseCoded": -2
                    },
                    {
                        "rt": 3455,
                        "swatch": "BI2A00039",
                        "trialNum": 4,
                        "response": "probably no",
                        "responseCoded": -2
                    },
                    {
                        "rt": 4047,
                        "swatch": "BI2A00038",
                        "trialNum": 5,
                        "response": "probably no",
                        "responseCoded": -2
                    },
                    {
                        "rt": 1006,
                        "swatch": "BI2A00046",
                        "trialNum": 6,
                        "response": "probably no",
                        "responseCoded": -2
                    },
                    {
                        "rt": 5446,
                        "swatch": "BI2A00015",
                        "trialNum": 7,
                        "response": "equally yes/no",
                        "responseCoded": 0
                    },
                    {
                        "rt": 1407,
                        "swatch": "BI2A00031",
                        "trialNum": 8,
                        "response": "probably no",
                        "responseCoded": -2
                    },
                    {
                        "rt": 4999,
                        "swatch": "BI2A00013",
                        "trialNum": 9,
                        "response": "maybe yes",
                        "responseCoded": 1
                    },
                    {
                        "rt": 5191,
                        "swatch": "BI2A00020",
                        "trialNum": 10,
                        "response": "equally yes/no",
                        "responseCoded": 0
                    },
                    {
                        "rt": 1887,
                        "swatch": "BI2A00007",
                        "trialNum": 11,
                        "response": "maybe yes",
                        "responseCoded": 1
                    },
                    {
                        "rt": 1831,
                        "swatch": "BI2A00033",
                        "trialNum": 12,
                        "response": "probably no",
                        "responseCoded": -2
                    },
                    {
                        "rt": 3658,
                        "swatch": "BI2A00010",
                        "trialNum": 13,
                        "response": "equally yes/no",
                        "responseCoded": 0
                    },
                    {
                        "rt": 4730,
                        "swatch": "BI2A00002",
                        "trialNum": 14,
                        "response": "equally yes/no",
                        "responseCoded": 0
                    },
                    {
                        "rt": 1430,
                        "swatch": "BI2A00037",
                        "trialNum": 15,
                        "response": "probably no",
                        "responseCoded": -2
                    },
                    {
                        "rt": 1280,
                        "swatch": "BI2A00025",
                        "trialNum": 16,
                        "response": "probably no",
                        "responseCoded": -2
                    },
                    {
                        "rt": 3167,
                        "swatch": "BI2A00009",
                        "trialNum": 17,
                        "response": "maybe yes",
                        "responseCoded": 1
                    },
                    {
                        "rt": 1823,
                        "swatch": "BI2A00047",
                        "trialNum": 18,
                        "response": "probably no",
                        "responseCoded": -2
                    },
                    {
                        "rt": 1263,
                        "swatch": "BI2A00004",
                        "trialNum": 19,
                        "response": "maybe yes",
                        "responseCoded": 1
                    },
                    {
                        "rt": 1821,
                        "swatch": "BI2A00016",
                        "trialNum": 20,
                        "response": "equally yes/no",
                        "responseCoded": 0
                    },
                    {
                        "rt": 3223,
                        "swatch": "BI2A00023",
                        "trialNum": 21,
                        "response": "maybe no",
                        "responseCoded": -1
                    },
                    {
                        "rt": 4350,
                        "swatch": "BI2A00032",
                        "trialNum": 22,
                        "response": "probably no",
                        "responseCoded": -2
                    },
                    {
                        "rt": 4831,
                        "swatch": "BI2A00001",
                        "trialNum": 23,
                        "response": "maybe yes",
                        "responseCoded": 1
                    },
                    {
                        "rt": 3647,
                        "swatch": "BI2A00012",
                        "trialNum": 24,
                        "response": "equally yes/no",
                        "responseCoded": 0
                    },
                    {
                        "rt": 2378,
                        "swatch": "BI2A00014",
                        "trialNum": 25,
                        "response": "equally yes/no",
                        "responseCoded": 0
                    },
                    {
                        "rt": 1477,
                        "swatch": "BI2A00005",
                        "trialNum": 26,
                        "response": "maybe yes",
                        "responseCoded": 1
                    },
                    {
                        "rt": 2221,
                        "swatch": "BI2A00034",
                        "trialNum": 27,
                        "response": "maybe no",
                        "responseCoded": -1
                    },
                    {
                        "rt": 2405,
                        "swatch": "BI2A00024",
                        "trialNum": 28,
                        "response": "maybe yes",
                        "responseCoded": 1
                    },
                    {
                        "rt": 4126,
                        "swatch": "BI2A00019",
                        "trialNum": 29,
                        "response": "maybe yes",
                        "responseCoded": 1
                    },
                    {
                        "rt": 1631,
                        "swatch": "BI2A00044",
                        "trialNum": 30,
                        "response": "probably no",
                        "responseCoded": -2
                    },
                    {
                        "rt": 1783,
                        "swatch": "BI2A00006",
                        "trialNum": 31,
                        "response": "maybe yes",
                        "responseCoded": 1
                    },
                    {
                        "rt": 847,
                        "swatch": "BI2A00003",
                        "trialNum": 32,
                        "response": "maybe yes",
                        "responseCoded": 1
                    },
                    {
                        "rt": 1206,
                        "swatch": "BI2A00048",
                        "trialNum": 33,
                        "response": "probably no",
                        "responseCoded": -2
                    },
                    {
                        "rt": 1504,
                        "swatch": "BI2A00030",
                        "trialNum": 34,
                        "response": "probably no",
                        "responseCoded": -2
                    },
                    {
                        "rt": 3383,
                        "swatch": "BI2A00042",
                        "trialNum": 35,
                        "response": "probably no",
                        "responseCoded": -2
                    },
                    {
                        "rt": 927,
                        "swatch": "BI2A00045",
                        "trialNum": 36,
                        "response": "probably no",
                        "responseCoded": -2
                    },
                    {
                        "rt": 1175,
                        "swatch": "BI2A00017",
                        "trialNum": 37,
                        "response": "probably no",
                        "responseCoded": -2
                    },
                    {
                        "rt": 1079,
                        "swatch": "BI2A00035",
                        "trialNum": 38,
                        "response": "probably no",
                        "responseCoded": -2
                    },
                    {
                        "rt": 1822,
                        "swatch": "BI2A00021",
                        "trialNum": 39,
                        "response": "probably no",
                        "responseCoded": -2
                    },
                    {
                        "rt": 1934,
                        "swatch": "BI2A00027",
                        "trialNum": 40,
                        "response": "probably no",
                        "responseCoded": -2
                    },
                    {
                        "rt": 998,
                        "swatch": "BI2A00036",
                        "trialNum": 41,
                        "response": "probably no",
                        "responseCoded": -2
                    },
                    {
                        "rt": 751,
                        "swatch": "BI2A00018",
                        "trialNum": 42,
                        "response": "probably no",
                        "responseCoded": -2
                    },
                    {
                        "rt": 3543,
                        "swatch": "BI2A00011",
                        "trialNum": 43,
                        "response": "maybe yes",
                        "responseCoded": 1
                    },
                    {
                        "rt": 4239,
                        "swatch": "BI2A00041",
                        "trialNum": 44,
                        "response": "maybe no",
                        "responseCoded": -1
                    },
                    {
                        "rt": 3891,
                        "swatch": "BI2A00008",
                        "trialNum": 45,
                        "response": "maybe yes",
                        "responseCoded": 1
                    },
                    {
                        "rt": 1377,
                        "swatch": "BI2A00026",
                        "trialNum": 46,
                        "response": "maybe yes",
                        "responseCoded": 1
                    },
                    {
                        "rt": 2207,
                        "swatch": "BI2A00043",
                        "trialNum": 47,
                        "response": "maybe no",
                        "responseCoded": -1
                    },
                    {
                        "rt": 2510,
                        "swatch": "BI2A00028",
                        "trialNum": 48,
                        "response": "maybe no",
                        "responseCoded": -1
                    }
                ],
                "gender": "male",
                "age": "41",
                "comments": "",
                "religion": [
                    "christianity_catholic"
                ],
                "condition": "happy",
                "fingerprintData": {
                    "ip": "72.185.23.235",
                    "screenHeight": 1080,
                    "plugins": [
                        {
                            "description": "Enables Widevine licenses for playback of HTML audio/video content. (version: 1.4.6.758)",
                            "filename": "widevinecdmadapter.dll"
                        },
                        {
                            "description": "Shockwave Flash 16.0 r0",
                            "filename": "pepflashplayer.dll"
                        },
                        {
                            "description": "This plugin allows you to securely access other computers that have been shared with you. To use this plugin you must first install the <a href=\"https://chrome.google.com/remotedesktop\">Chrome Remote Desktop</a> webapp.",
                            "filename": "internal-remoting-viewer"
                        },
                        {
                            "description": "",
                            "filename": "internal-nacl-plugin"
                        },
                        {
                            "description": "",
                            "filename": "pdf.dll"
                        },
                        {
                            "description": "Coupons, Inc. Coupon Printer 4.0.2.0",
                            "filename": "npMozCouponPrinter.dll"
                        },
                        {
                            "description": "The QuickTime Plugin allows you to view a wide variety of multimedia content in Web pages. For more information, visit the <A HREF=http://www.apple.com/quicktime/>QuickTime</A> Web site.",
                            "filename": "npqtplugin.dll"
                        },
                        {
                            "description": "The QuickTime Plugin allows you to view a wide variety of multimedia content in Web pages. For more information, visit the <A HREF=http://www.apple.com/quicktime/>QuickTime</A> Web site.",
                            "filename": "npqtplugin2.dll"
                        },
                        {
                            "description": "The QuickTime Plugin allows you to view a wide variety of multimedia content in Web pages. For more information, visit the <A HREF=http://www.apple.com/quicktime/>QuickTime</A> Web site.",
                            "filename": "npqtplugin3.dll"
                        },
                        {
                            "description": "The QuickTime Plugin allows you to view a wide variety of multimedia content in Web pages. For more information, visit the <A HREF=http://www.apple.com/quicktime/>QuickTime</A> Web site.",
                            "filename": "npqtplugin4.dll"
                        },
                        {
                            "description": "The QuickTime Plugin allows you to view a wide variety of multimedia content in Web pages. For more information, visit the <A HREF=http://www.apple.com/quicktime/>QuickTime</A> Web site.",
                            "filename": "npqtplugin5.dll"
                        },
                        {
                            "description": "Adobe PDF Plug-In For Firefox and Netscape 11.0.10",
                            "filename": "nppdf32.dll"
                        },
                        {
                            "description": "GEPlugin",
                            "filename": "npgeplugin.dll"
                        },
                        {
                            "description": "NPRuntime Script Plug-in Library for Java(TM) Deploy",
                            "filename": "npDeployJava1.dll"
                        },
                        {
                            "description": "Next Generation Java Plug-in 11.31.2 for Mozilla browsers",
                            "filename": "npjp2.dll"
                        },
                        {
                            "description": "Inquisit Mozilla Plugin 4.0.4.0",
                            "filename": "npInquisit.dll"
                        },
                        {
                            "description": "VLC media player Web Plugin 2.1.3",
                            "filename": "npvlc.dll"
                        },
                        {
                            "description": "WildTangent Games App V2 Presence Detector",
                            "filename": "NP_wtapp.dll"
                        },
                        {
                            "description": "NPWLPG",
                            "filename": "NPWLPG.dll"
                        },
                        {
                            "description": "iTunes Detector Plug-in",
                            "filename": "npitunes.dll"
                        },
                        {
                            "description": "Unity Player 4.5.5f1",
                            "filename": "npUnity3D32.dll"
                        },
                        {
                            "description": "Google Update",
                            "filename": "npGoogleUpdate3.dll"
                        },
                        {
                            "description": "ACE Stream Plug-in Version 2.2.5.1-next, Copyright (c) 2012-2014 Innovative Digital Technologies",
                            "filename": "npace_plugin.dll"
                        },
                        {
                            "description": "Version 5.40.2.0",
                            "filename": "npgoogletalk.dll"
                        },
                        {
                            "description": "Version 5.40.2.0",
                            "filename": "npo1d.dll"
                        },
                        {
                            "description": "VLC Web Plugin (powered by FireBreath)",
                            "filename": "npFBVLC.dll"
                        },
                        {
                            "description": "Shockwave Flash 16.0 r0",
                            "filename": "NPSWF32_16_0_0_305.dll"
                        },
                        {
                            "description": "5.1.30514.0",
                            "filename": "npctrl.dll"
                        }
                    ],
                    "timezone": 300,
                    "colorDepth": 24,
                    "screenWidth": 1920,
                    "geo": {
                        "city": "Beverly Hills",
                        "region_code": "FL",
                        "region_name": "Florida",
                        "ip": "72.185.23.235",
                        "time_zone": "America/New_York",
                        "longitude": -82.473,
                        "metro_code": 534,
                        "latitude": 28.935,
                        "country_code": "US",
                        "country_name": "United States",
                        "zip_code": "34465"
                    },
                    "browser": "Mozilla/5.0 (Windows NT 6.3; WOW64) AppleWebKit/537.36 (KHTML, like Gecko) Chrome/40.0.2214.115 Safari/537.36"
                },
                "ethnicity": [
                    "white"
                ]
            }
        }
    },
    "AcceptTime": "2015-03-03T11:00:21Z",
    "HITId": "39TX062QX1XDAW3RDVV42F2R1TJX3X",
    "Assignment": "",
    "AssignmentStatus": "Approved",
    "SubmitTime": "2015-03-03T11:03:57Z"
}