{
    "ApprovalTime": "2015-03-03T11:07:36Z",
    "AutoApprovalTime": "2015-03-03T11:04:16Z",
    "AssignmentId": "37TRT2X24R0J4R081M0AI9O7R19JBN",
    "WorkerId": "A3ENN33QWN1RGF",
    "answers": {
        "data": {
            "trials": [],
            "condition": "pain",
            "allData": {
                "education": "college_assocDegree",
                "englishNative": "yes_only",
                "trialData": [
                    {
                        "rt": 8630,
                        "swatch": "BI2A00014",
                        "trialNum": 1,
                        "response": "maybe no",
                        "responseCoded": -1
                    },
                    {
                        "rt": 3724,
                        "swatch": "BI2A00011",
                        "trialNum": 2,
                        "response": "definitely yes",
                        "responseCoded": 3
                    },
                    {
                        "rt": 3093,
                        "swatch": "BI2A00024",
                        "trialNum": 3,
                        "response": "definitely yes",
                        "responseCoded": 3
                    },
                    {
                        "rt": 5213,
                        "swatch": "BI2A00033",
                        "trialNum": 4,
                        "response": "definitely no",
                        "responseCoded": 3
                    },
                    {
                        "rt": 2030,
                        "swatch": "BI2A00039",
                        "trialNum": 5,
                        "response": "definitely no",
                        "responseCoded": 3
                    },
                    {
                        "rt": 1702,
                        "swatch": "BI2A00002",
                        "trialNum": 6,
                        "response": "definitely yes",
                        "responseCoded": 3
                    },
                    {
                        "rt": 1389,
                        "swatch": "BI2A00003",
                        "trialNum": 7,
                        "response": "definitely yes",
                        "responseCoded": 3
                    },
                    {
                        "rt": 5773,
                        "swatch": "BI2A00042",
                        "trialNum": 8,
                        "response": "definitely no",
                        "responseCoded": 3
                    },
                    {
                        "rt": 4094,
                        "swatch": "BI2A00036",
                        "trialNum": 9,
                        "response": "probably no",
                        "responseCoded": -2
                    },
                    {
                        "rt": 2598,
                        "swatch": "BI2A00012",
                        "trialNum": 10,
                        "response": "definitely yes",
                        "responseCoded": 3
                    },
                    {
                        "rt": 2830,
                        "swatch": "BI2A00029",
                        "trialNum": 11,
                        "response": "probably yes",
                        "responseCoded": 2
                    },
                    {
                        "rt": 1580,
                        "swatch": "BI2A00016",
                        "trialNum": 12,
                        "response": "definitely yes",
                        "responseCoded": 3
                    },
                    {
                        "rt": 1140,
                        "swatch": "BI2A00013",
                        "trialNum": 13,
                        "response": "definitely yes",
                        "responseCoded": 3
                    },
                    {
                        "rt": 1756,
                        "swatch": "BI2A00008",
                        "trialNum": 14,
                        "response": "definitely yes",
                        "responseCoded": 3
                    },
                    {
                        "rt": 2604,
                        "swatch": "BI2A00037",
                        "trialNum": 15,
                        "response": "definitely no",
                        "responseCoded": 3
                    },
                    {
                        "rt": 1350,
                        "swatch": "BI2A00020",
                        "trialNum": 16,
                        "response": "definitely yes",
                        "responseCoded": 3
                    },
                    {
                        "rt": 1517,
                        "swatch": "BI2A00040",
                        "trialNum": 17,
                        "response": "definitely no",
                        "responseCoded": 3
                    },
                    {
                        "rt": 1900,
                        "swatch": "BI2A00009",
                        "trialNum": 18,
                        "response": "definitely yes",
                        "responseCoded": 3
                    },
                    {
                        "rt": 1750,
                        "swatch": "BI2A00031",
                        "trialNum": 19,
                        "response": "definitely no",
                        "responseCoded": 3
                    },
                    {
                        "rt": 1589,
                        "swatch": "BI2A00034",
                        "trialNum": 20,
                        "response": "probably no",
                        "responseCoded": -2
                    },
                    {
                        "rt": 1958,
                        "swatch": "BI2A00015",
                        "trialNum": 21,
                        "response": "definitely yes",
                        "responseCoded": 3
                    },
                    {
                        "rt": 1715,
                        "swatch": "BI2A00043",
                        "trialNum": 22,
                        "response": "probably no",
                        "responseCoded": -2
                    },
                    {
                        "rt": 1253,
                        "swatch": "BI2A00007",
                        "trialNum": 23,
                        "response": "definitely yes",
                        "responseCoded": 3
                    },
                    {
                        "rt": 1015,
                        "swatch": "BI2A00019",
                        "trialNum": 24,
                        "response": "definitely yes",
                        "responseCoded": 3
                    },
                    {
                        "rt": 1830,
                        "swatch": "BI2A00030",
                        "trialNum": 25,
                        "response": "probably no",
                        "responseCoded": -2
                    },
                    {
                        "rt": 2284,
                        "swatch": "BI2A00010",
                        "trialNum": 26,
                        "response": "probably yes",
                        "responseCoded": 2
                    },
                    {
                        "rt": 1949,
                        "swatch": "BI2A00021",
                        "trialNum": 27,
                        "response": "definitely no",
                        "responseCoded": 3
                    },
                    {
                        "rt": 1675,
                        "swatch": "BI2A00035",
                        "trialNum": 28,
                        "response": "definitely no",
                        "responseCoded": 3
                    },
                    {
                        "rt": 2365,
                        "swatch": "BI2A00018",
                        "trialNum": 29,
                        "response": "definitely no",
                        "responseCoded": 3
                    },
                    {
                        "rt": 8910,
                        "swatch": "BI2A00004",
                        "trialNum": 30,
                        "response": "definitely yes",
                        "responseCoded": 3
                    },
                    {
                        "rt": 1526,
                        "swatch": "BI2A00044",
                        "trialNum": 31,
                        "response": "definitely no",
                        "responseCoded": 3
                    },
                    {
                        "rt": 2174,
                        "swatch": "BI2A00028",
                        "trialNum": 32,
                        "response": "probably no",
                        "responseCoded": -2
                    },
                    {
                        "rt": 1533,
                        "swatch": "BI2A00005",
                        "trialNum": 33,
                        "response": "definitely yes",
                        "responseCoded": 3
                    },
                    {
                        "rt": 1646,
                        "swatch": "BI2A00027",
                        "trialNum": 34,
                        "response": "probably no",
                        "responseCoded": -2
                    },
                    {
                        "rt": 3590,
                        "swatch": "BI2A00046",
                        "trialNum": 35,
                        "response": "definitely no",
                        "responseCoded": 3
                    },
                    {
                        "rt": 1902,
                        "swatch": "BI2A00025",
                        "trialNum": 36,
                        "response": "definitely no",
                        "responseCoded": 3
                    },
                    {
                        "rt": 3749,
                        "swatch": "BI2A00038",
                        "trialNum": 37,
                        "response": "definitely no",
                        "responseCoded": 3
                    },
                    {
                        "rt": 1286,
                        "swatch": "BI2A00041",
                        "trialNum": 38,
                        "response": "definitely no",
                        "responseCoded": 3
                    },
                    {
                        "rt": 2190,
                        "swatch": "BI2A00026",
                        "trialNum": 39,
                        "response": "maybe yes",
                        "responseCoded": 1
                    },
                    {
                        "rt": 4934,
                        "swatch": "BI2A00023",
                        "trialNum": 40,
                        "response": "maybe no",
                        "responseCoded": -1
                    },
                    {
                        "rt": 1526,
                        "swatch": "BI2A00006",
                        "trialNum": 41,
                        "response": "definitely yes",
                        "responseCoded": 3
                    },
                    {
                        "rt": 1686,
                        "swatch": "BI2A00048",
                        "trialNum": 42,
                        "response": "probably no",
                        "responseCoded": -2
                    },
                    {
                        "rt": 2086,
                        "swatch": "BI2A00017",
                        "trialNum": 43,
                        "response": "probably no",
                        "responseCoded": -2
                    },
                    {
                        "rt": 1862,
                        "swatch": "BI2A00022",
                        "trialNum": 44,
                        "response": "probably yes",
                        "responseCoded": 2
                    },
                    {
                        "rt": 1252,
                        "swatch": "BI2A00045",
                        "trialNum": 45,
                        "response": "definitely no",
                        "responseCoded": 3
                    },
                    {
                        "rt": 1383,
                        "swatch": "BI2A00001",
                        "trialNum": 46,
                        "response": "definitely yes",
                        "responseCoded": 3
                    },
                    {
                        "rt": 4222,
                        "swatch": "BI2A00047",
                        "trialNum": 47,
                        "response": "probably no",
                        "responseCoded": -2
                    },
                    {
                        "rt": 1742,
                        "swatch": "BI2A00032",
                        "trialNum": 48,
                        "response": "probably no",
                        "responseCoded": -2
                    }
                ],
                "gender": "male",
                "age": "30",
                "comments": "",
                "religion": [
                    "christianity_protestant"
                ],
                "condition": "pain",
                "fingerprintData": {
                    "ip": "162.201.254.164",
                    "screenHeight": 768,
                    "plugins": [
                        {
                            "description": "Enables Widevine licenses for playback of HTML audio/video content. (version: 1.4.6.758)",
                            "filename": "widevinecdmadapter.dll"
                        },
                        {
                            "description": "Shockwave Flash 16.0 r0",
                            "filename": "pepflashplayer.dll"
                        },
                        {
                            "description": "This plugin allows you to securely access other computers that have been shared with you. To use this plugin you must first install the <a href=\"https://chrome.google.com/remotedesktop\">Chrome Remote Desktop</a> webapp.",
                            "filename": "internal-remoting-viewer"
                        },
                        {
                            "description": "",
                            "filename": "internal-nacl-plugin"
                        },
                        {
                            "description": "",
                            "filename": "pdf.dll"
                        },
                        {
                            "description": "The QuickTime Plugin allows you to view a wide variety of multimedia content in Web pages. For more information, visit the <A HREF=http://www.apple.com/quicktime/>QuickTime</A> Web site.",
                            "filename": "npqtplugin.dll"
                        },
                        {
                            "description": "The QuickTime Plugin allows you to view a wide variety of multimedia content in Web pages. For more information, visit the <A HREF=http://www.apple.com/quicktime/>QuickTime</A> Web site.",
                            "filename": "npqtplugin2.dll"
                        },
                        {
                            "description": "The QuickTime Plugin allows you to view a wide variety of multimedia content in Web pages. For more information, visit the <A HREF=http://www.apple.com/quicktime/>QuickTime</A> Web site.",
                            "filename": "npqtplugin3.dll"
                        },
                        {
                            "description": "The QuickTime Plugin allows you to view a wide variety of multimedia content in Web pages. For more information, visit the <A HREF=http://www.apple.com/quicktime/>QuickTime</A> Web site.",
                            "filename": "npqtplugin4.dll"
                        },
                        {
                            "description": "The QuickTime Plugin allows you to view a wide variety of multimedia content in Web pages. For more information, visit the <A HREF=http://www.apple.com/quicktime/>QuickTime</A> Web site.",
                            "filename": "npqtplugin5.dll"
                        },
                        {
                            "description": "Office Authorization plug-in for NPAPI browsers",
                            "filename": "NPAUTHZ.DLL"
                        },
                        {
                            "description": "The plug-in allows you to open and edit files using Microsoft Office applications",
                            "filename": "NPSPWRAP.DLL"
                        },
                        {
                            "description": "AmazonMP3DownloaderPlugin 1.0.15",
                            "filename": "npAmazonMP3DownloaderPlugin.dll"
                        },
                        {
                            "description": "Google Update",
                            "filename": "npGoogleUpdate3.dll"
                        },
                        {
                            "description": "NPRuntime Script Plug-in Library for Java(TM) Deploy",
                            "filename": "npDeployJava1.dll"
                        },
                        {
                            "description": "Next Generation Java Plug-in 10.55.2 for Mozilla browsers",
                            "filename": "npjp2.dll"
                        },
                        {
                            "description": "LastPass Plugin",
                            "filename": "nplastpass.dll"
                        },
                        {
                            "description": "Pando Web Plugin",
                            "filename": "npPandoWebPlugin.dll"
                        },
                        {
                            "description": "NPWLPG",
                            "filename": "NPWLPG.dll"
                        },
                        {
                            "description": "iTunes Detector Plug-in",
                            "filename": "npitunes.dll"
                        },
                        {
                            "description": "Shockwave Flash 16.0 r0",
                            "filename": "NPSWF32_16_0_0_305.dll"
                        },
                        {
                            "description": "5.1.30514.0",
                            "filename": "npctrl.dll"
                        }
                    ],
                    "timezone": 480,
                    "colorDepth": 24,
                    "screenWidth": 1366,
                    "geo": {
                        "city": "Hawthorne",
                        "region_code": "CA",
                        "region_name": "California",
                        "ip": "162.201.254.164",
                        "time_zone": "America/Los_Angeles",
                        "longitude": -118.353,
                        "metro_code": 803,
                        "latitude": 33.916,
                        "country_code": "US",
                        "country_name": "United States",
                        "zip_code": "90250"
                    },
                    "browser": "Mozilla/5.0 (Windows NT 6.1; WOW64) AppleWebKit/537.36 (KHTML, like Gecko) Chrome/40.0.2214.115 Safari/537.36"
                },
                "ethnicity": [
                    "black"
                ]
            }
        }
    },
    "AcceptTime": "2015-03-03T10:55:55Z",
    "HITId": "39TX062QX1XDAW3RDVV42F2R1TJX3X",
    "Assignment": "",
    "AssignmentStatus": "Approved",
    "SubmitTime": "2015-03-03T10:59:16Z"
}