{
    "AutoApprovalTime": "2015-03-03T11:26:52Z",
    "AssignmentId": "388U7OUMF8AZISGBBBCU0JEFAE60RA",
    "WorkerId": "A150GMV1YQWWB3",
    "answers": {
        "data": {
            "trials": [],
            "condition": "sense",
            "allData": {
                "education": "hs_diploma",
                "englishNative": "yes_only",
                "trialData": [
                    {
                        "rt": 6791,
                        "swatch": "BI2A00014",
                        "trialNum": 1,
                        "response": "probably no",
                        "responseCoded": -2
                    },
                    {
                        "rt": 2818,
                        "swatch": "BI2A00022",
                        "trialNum": 2,
                        "response": "probably no",
                        "responseCoded": -2
                    },
                    {
                        "rt": 3335,
                        "swatch": "BI2A00032",
                        "trialNum": 3,
                        "response": "definitely no",
                        "responseCoded": 3
                    },
                    {
                        "rt": 1790,
                        "swatch": "BI2A00033",
                        "trialNum": 4,
                        "response": "probably no",
                        "responseCoded": -2
                    },
                    {
                        "rt": 2309,
                        "swatch": "BI2A00016",
                        "trialNum": 5,
                        "response": "probably yes",
                        "responseCoded": 2
                    },
                    {
                        "rt": 2110,
                        "swatch": "BI2A00046",
                        "trialNum": 6,
                        "response": "definitely no",
                        "responseCoded": 3
                    },
                    {
                        "rt": 2182,
                        "swatch": "BI2A00019",
                        "trialNum": 7,
                        "response": "maybe yes",
                        "responseCoded": 1
                    },
                    {
                        "rt": 1741,
                        "swatch": "BI2A00011",
                        "trialNum": 8,
                        "response": "definitely yes",
                        "responseCoded": 3
                    },
                    {
                        "rt": 1934,
                        "swatch": "BI2A00036",
                        "trialNum": 9,
                        "response": "definitely no",
                        "responseCoded": 3
                    },
                    {
                        "rt": 2382,
                        "swatch": "BI2A00030",
                        "trialNum": 10,
                        "response": "definitely no",
                        "responseCoded": 3
                    },
                    {
                        "rt": 1838,
                        "swatch": "BI2A00017",
                        "trialNum": 11,
                        "response": "probably no",
                        "responseCoded": -2
                    },
                    {
                        "rt": 2678,
                        "swatch": "BI2A00013",
                        "trialNum": 12,
                        "response": "probably yes",
                        "responseCoded": 2
                    },
                    {
                        "rt": 2038,
                        "swatch": "BI2A00027",
                        "trialNum": 13,
                        "response": "probably no",
                        "responseCoded": -2
                    },
                    {
                        "rt": 2045,
                        "swatch": "BI2A00015",
                        "trialNum": 14,
                        "response": "probably yes",
                        "responseCoded": 2
                    },
                    {
                        "rt": 2574,
                        "swatch": "BI2A00034",
                        "trialNum": 15,
                        "response": "probably no",
                        "responseCoded": -2
                    },
                    {
                        "rt": 1631,
                        "swatch": "BI2A00004",
                        "trialNum": 16,
                        "response": "probably yes",
                        "responseCoded": 2
                    },
                    {
                        "rt": 1527,
                        "swatch": "BI2A00039",
                        "trialNum": 17,
                        "response": "definitely no",
                        "responseCoded": 3
                    },
                    {
                        "rt": 1404,
                        "swatch": "BI2A00044",
                        "trialNum": 18,
                        "response": "definitely no",
                        "responseCoded": 3
                    },
                    {
                        "rt": 2423,
                        "swatch": "BI2A00025",
                        "trialNum": 19,
                        "response": "probably no",
                        "responseCoded": -2
                    },
                    {
                        "rt": 1958,
                        "swatch": "BI2A00018",
                        "trialNum": 20,
                        "response": "probably no",
                        "responseCoded": -2
                    },
                    {
                        "rt": 2007,
                        "swatch": "BI2A00008",
                        "trialNum": 21,
                        "response": "probably yes",
                        "responseCoded": 2
                    },
                    {
                        "rt": 2277,
                        "swatch": "BI2A00029",
                        "trialNum": 22,
                        "response": "maybe no",
                        "responseCoded": -1
                    },
                    {
                        "rt": 2585,
                        "swatch": "BI2A00023",
                        "trialNum": 23,
                        "response": "maybe no",
                        "responseCoded": -1
                    },
                    {
                        "rt": 1614,
                        "swatch": "BI2A00040",
                        "trialNum": 24,
                        "response": "definitely no",
                        "responseCoded": 3
                    },
                    {
                        "rt": 1647,
                        "swatch": "BI2A00041",
                        "trialNum": 25,
                        "response": "definitely no",
                        "responseCoded": 3
                    },
                    {
                        "rt": 1787,
                        "swatch": "BI2A00002",
                        "trialNum": 26,
                        "response": "maybe yes",
                        "responseCoded": 1
                    },
                    {
                        "rt": 1565,
                        "swatch": "BI2A00006",
                        "trialNum": 27,
                        "response": "maybe yes",
                        "responseCoded": 1
                    },
                    {
                        "rt": 3102,
                        "swatch": "BI2A00012",
                        "trialNum": 28,
                        "response": "probably no",
                        "responseCoded": -2
                    },
                    {
                        "rt": 2766,
                        "swatch": "BI2A00024",
                        "trialNum": 29,
                        "response": "definitely yes",
                        "responseCoded": 3
                    },
                    {
                        "rt": 2806,
                        "swatch": "BI2A00020",
                        "trialNum": 30,
                        "response": "maybe yes",
                        "responseCoded": 1
                    },
                    {
                        "rt": 1590,
                        "swatch": "BI2A00035",
                        "trialNum": 31,
                        "response": "definitely no",
                        "responseCoded": 3
                    },
                    {
                        "rt": 3992,
                        "swatch": "BI2A00028",
                        "trialNum": 32,
                        "response": "probably no",
                        "responseCoded": -2
                    },
                    {
                        "rt": 1597,
                        "swatch": "BI2A00031",
                        "trialNum": 33,
                        "response": "definitely no",
                        "responseCoded": 3
                    },
                    {
                        "rt": 2318,
                        "swatch": "BI2A00003",
                        "trialNum": 34,
                        "response": "maybe yes",
                        "responseCoded": 1
                    },
                    {
                        "rt": 1662,
                        "swatch": "BI2A00021",
                        "trialNum": 35,
                        "response": "definitely no",
                        "responseCoded": 3
                    },
                    {
                        "rt": 1653,
                        "swatch": "BI2A00047",
                        "trialNum": 36,
                        "response": "probably no",
                        "responseCoded": -2
                    },
                    {
                        "rt": 1423,
                        "swatch": "BI2A00038",
                        "trialNum": 37,
                        "response": "definitely no",
                        "responseCoded": 3
                    },
                    {
                        "rt": 1038,
                        "swatch": "BI2A00048",
                        "trialNum": 38,
                        "response": "definitely no",
                        "responseCoded": 3
                    },
                    {
                        "rt": 1541,
                        "swatch": "BI2A00007",
                        "trialNum": 39,
                        "response": "probably yes",
                        "responseCoded": 2
                    },
                    {
                        "rt": 1942,
                        "swatch": "BI2A00043",
                        "trialNum": 40,
                        "response": "definitely no",
                        "responseCoded": 3
                    },
                    {
                        "rt": 1968,
                        "swatch": "BI2A00042",
                        "trialNum": 41,
                        "response": "definitely no",
                        "responseCoded": 3
                    },
                    {
                        "rt": 2069,
                        "swatch": "BI2A00005",
                        "trialNum": 42,
                        "response": "definitely yes",
                        "responseCoded": 3
                    },
                    {
                        "rt": 1854,
                        "swatch": "BI2A00010",
                        "trialNum": 43,
                        "response": "probably yes",
                        "responseCoded": 2
                    },
                    {
                        "rt": 1246,
                        "swatch": "BI2A00045",
                        "trialNum": 44,
                        "response": "definitely no",
                        "responseCoded": 3
                    },
                    {
                        "rt": 1959,
                        "swatch": "BI2A00009",
                        "trialNum": 45,
                        "response": "probably yes",
                        "responseCoded": 2
                    },
                    {
                        "rt": 1655,
                        "swatch": "BI2A00037",
                        "trialNum": 46,
                        "response": "probably no",
                        "responseCoded": -2
                    },
                    {
                        "rt": 2006,
                        "swatch": "BI2A00026",
                        "trialNum": 47,
                        "response": "maybe yes",
                        "responseCoded": 1
                    },
                    {
                        "rt": 1079,
                        "swatch": "BI2A00001",
                        "trialNum": 48,
                        "response": "maybe yes",
                        "responseCoded": 1
                    }
                ],
                "gender": "male",
                "age": "35",
                "comments": "",
                "religion": [
                    "none"
                ],
                "condition": "sense",
                "fingerprintData": {
                    "ip": "24.199.164.138",
                    "screenHeight": 1024,
                    "plugins": [
                        {
                            "description": "Enables Widevine licenses for playback of HTML audio/video content. (version: 1.4.6.758)",
                            "filename": "widevinecdmadapter.dll"
                        },
                        {
                            "description": "Shockwave Flash 16.0 r0",
                            "filename": "pepflashplayer.dll"
                        },
                        {
                            "description": "This plugin allows you to securely access other computers that have been shared with you. To use this plugin you must first install the <a href=\"https://chrome.google.com/remotedesktop\">Chrome Remote Desktop</a> webapp.",
                            "filename": "internal-remoting-viewer"
                        },
                        {
                            "description": "",
                            "filename": "internal-nacl-plugin"
                        },
                        {
                            "description": "",
                            "filename": "pdf.dll"
                        },
                        {
                            "description": "Creative Cloud Desktop Plugin.v_2_0_0_0",
                            "filename": "npAdobeAAMDetect32.dll"
                        },
                        {
                            "description": "Google Update",
                            "filename": "npGoogleUpdate3.dll"
                        },
                        {
                            "description": "NPRuntime Script Plug-in Library for Java(TM) Deploy",
                            "filename": "npDeployJava1.dll"
                        },
                        {
                            "description": "Next Generation Java Plug-in 10.71.2 for Mozilla browsers",
                            "filename": "npjp2.dll"
                        },
                        {
                            "description": "Unity Player 5.0.0f4",
                            "filename": "npUnity3D32.dll"
                        },
                        {
                            "description": "Adobe Shockwave for Director Netscape plug-in, version 12.0.9.149",
                            "filename": "np32dsw_1209149.dll"
                        },
                        {
                            "description": "Shockwave Flash 16.0 r0",
                            "filename": "NPSWF32_16_0_0_305.dll"
                        },
                        {
                            "description": "5.1.30514.0",
                            "filename": "npctrl.dll"
                        }
                    ],
                    "timezone": 300,
                    "colorDepth": 24,
                    "screenWidth": 1280,
                    "geo": {
                        "city": "High Point",
                        "region_code": "NC",
                        "region_name": "North Carolina",
                        "ip": "24.199.164.138",
                        "time_zone": "America/New_York",
                        "longitude": -80.006,
                        "metro_code": 518,
                        "latitude": 35.956,
                        "country_code": "US",
                        "country_name": "United States",
                        "zip_code": "27260"
                    },
                    "browser": "Mozilla/5.0 (Windows NT 6.1; WOW64) AppleWebKit/537.36 (KHTML, like Gecko) Chrome/40.0.2214.115 Safari/537.36"
                },
                "ethnicity": [
                    "white"
                ]
            }
        }
    },
    "AcceptTime": "2015-03-03T10:43:50Z",
    "HITId": "39TX062QX1XDAW3RDVV42F2R1TJX3X",
    "Assignment": "",
    "AssignmentStatus": "Submitted",
    "SubmitTime": "2015-03-03T11:21:52Z"
}