{
    "ApprovalTime": "2015-03-03T10:57:36Z",
    "AutoApprovalTime": "2015-03-03T10:52:53Z",
    "AssignmentId": "3COPXFW7XCLGJ5702CINE8T9NTNKP5",
    "WorkerId": "A37WXDYYT7RCZ0",
    "answers": {
        "data": {
            "trials": [],
            "condition": "feelings",
            "allData": {
                "education": "grad_degree",
                "englishNative": "yes_only",
                "trialData": [
                    {
                        "rt": 3886,
                        "swatch": "BI2A00028",
                        "trialNum": 1,
                        "response": "maybe no",
                        "responseCoded": -1
                    },
                    {
                        "rt": 1462,
                        "swatch": "BI2A00036",
                        "trialNum": 2,
                        "response": "maybe no",
                        "responseCoded": -1
                    },
                    {
                        "rt": 982,
                        "swatch": "BI2A00040",
                        "trialNum": 3,
                        "response": "maybe no",
                        "responseCoded": -1
                    },
                    {
                        "rt": 817,
                        "swatch": "BI2A00032",
                        "trialNum": 4,
                        "response": "maybe no",
                        "responseCoded": -1
                    },
                    {
                        "rt": 1606,
                        "swatch": "BI2A00007",
                        "trialNum": 5,
                        "response": "probably no",
                        "responseCoded": -2
                    },
                    {
                        "rt": 1783,
                        "swatch": "BI2A00027",
                        "trialNum": 6,
                        "response": "maybe no",
                        "responseCoded": -1
                    },
                    {
                        "rt": 1425,
                        "swatch": "BI2A00037",
                        "trialNum": 7,
                        "response": "probably no",
                        "responseCoded": -2
                    },
                    {
                        "rt": 945,
                        "swatch": "BI2A00016",
                        "trialNum": 8,
                        "response": "probably no",
                        "responseCoded": -2
                    },
                    {
                        "rt": 585,
                        "swatch": "BI2A00015",
                        "trialNum": 9,
                        "response": "probably no",
                        "responseCoded": -2
                    },
                    {
                        "rt": 1377,
                        "swatch": "BI2A00042",
                        "trialNum": 10,
                        "response": "probably no",
                        "responseCoded": -2
                    },
                    {
                        "rt": 645,
                        "swatch": "BI2A00030",
                        "trialNum": 11,
                        "response": "probably no",
                        "responseCoded": -2
                    },
                    {
                        "rt": 847,
                        "swatch": "BI2A00029",
                        "trialNum": 12,
                        "response": "probably no",
                        "responseCoded": -2
                    },
                    {
                        "rt": 593,
                        "swatch": "BI2A00017",
                        "trialNum": 13,
                        "response": "probably no",
                        "responseCoded": -2
                    },
                    {
                        "rt": 563,
                        "swatch": "BI2A00033",
                        "trialNum": 14,
                        "response": "probably no",
                        "responseCoded": -2
                    },
                    {
                        "rt": 689,
                        "swatch": "BI2A00008",
                        "trialNum": 15,
                        "response": "probably no",
                        "responseCoded": -2
                    },
                    {
                        "rt": 634,
                        "swatch": "BI2A00043",
                        "trialNum": 16,
                        "response": "probably no",
                        "responseCoded": -2
                    },
                    {
                        "rt": 573,
                        "swatch": "BI2A00021",
                        "trialNum": 17,
                        "response": "probably no",
                        "responseCoded": -2
                    },
                    {
                        "rt": 574,
                        "swatch": "BI2A00046",
                        "trialNum": 18,
                        "response": "probably no",
                        "responseCoded": -2
                    },
                    {
                        "rt": 1588,
                        "swatch": "BI2A00005",
                        "trialNum": 19,
                        "response": "equally yes/no",
                        "responseCoded": 0
                    },
                    {
                        "rt": 1181,
                        "swatch": "BI2A00044",
                        "trialNum": 20,
                        "response": "probably no",
                        "responseCoded": -2
                    },
                    {
                        "rt": 989,
                        "swatch": "BI2A00004",
                        "trialNum": 21,
                        "response": "equally yes/no",
                        "responseCoded": 0
                    },
                    {
                        "rt": 1014,
                        "swatch": "BI2A00013",
                        "trialNum": 22,
                        "response": "equally yes/no",
                        "responseCoded": 0
                    },
                    {
                        "rt": 909,
                        "swatch": "BI2A00003",
                        "trialNum": 23,
                        "response": "equally yes/no",
                        "responseCoded": 0
                    },
                    {
                        "rt": 1193,
                        "swatch": "BI2A00012",
                        "trialNum": 24,
                        "response": "equally yes/no",
                        "responseCoded": 0
                    },
                    {
                        "rt": 940,
                        "swatch": "BI2A00011",
                        "trialNum": 25,
                        "response": "equally yes/no",
                        "responseCoded": 0
                    },
                    {
                        "rt": 1210,
                        "swatch": "BI2A00034",
                        "trialNum": 26,
                        "response": "equally yes/no",
                        "responseCoded": 0
                    },
                    {
                        "rt": 2029,
                        "swatch": "BI2A00041",
                        "trialNum": 27,
                        "response": "probably no",
                        "responseCoded": -2
                    },
                    {
                        "rt": 1218,
                        "swatch": "BI2A00010",
                        "trialNum": 28,
                        "response": "equally yes/no",
                        "responseCoded": 0
                    },
                    {
                        "rt": 695,
                        "swatch": "BI2A00001",
                        "trialNum": 29,
                        "response": "equally yes/no",
                        "responseCoded": 0
                    },
                    {
                        "rt": 594,
                        "swatch": "BI2A00006",
                        "trialNum": 30,
                        "response": "equally yes/no",
                        "responseCoded": 0
                    },
                    {
                        "rt": 1050,
                        "swatch": "BI2A00048",
                        "trialNum": 31,
                        "response": "probably no",
                        "responseCoded": -2
                    },
                    {
                        "rt": 703,
                        "swatch": "BI2A00014",
                        "trialNum": 32,
                        "response": "equally yes/no",
                        "responseCoded": 0
                    },
                    {
                        "rt": 763,
                        "swatch": "BI2A00020",
                        "trialNum": 33,
                        "response": "equally yes/no",
                        "responseCoded": 0
                    },
                    {
                        "rt": 561,
                        "swatch": "BI2A00038",
                        "trialNum": 34,
                        "response": "equally yes/no",
                        "responseCoded": 0
                    },
                    {
                        "rt": 1595,
                        "swatch": "BI2A00035",
                        "trialNum": 35,
                        "response": "probably no",
                        "responseCoded": -2
                    },
                    {
                        "rt": 998,
                        "swatch": "BI2A00045",
                        "trialNum": 36,
                        "response": "probably no",
                        "responseCoded": -2
                    },
                    {
                        "rt": 593,
                        "swatch": "BI2A00031",
                        "trialNum": 37,
                        "response": "probably no",
                        "responseCoded": -2
                    },
                    {
                        "rt": 1465,
                        "swatch": "BI2A00009",
                        "trialNum": 38,
                        "response": "equally yes/no",
                        "responseCoded": 0
                    },
                    {
                        "rt": 1107,
                        "swatch": "BI2A00039",
                        "trialNum": 39,
                        "response": "probably no",
                        "responseCoded": -2
                    },
                    {
                        "rt": 593,
                        "swatch": "BI2A00026",
                        "trialNum": 40,
                        "response": "equally yes/no",
                        "responseCoded": 0
                    },
                    {
                        "rt": 764,
                        "swatch": "BI2A00019",
                        "trialNum": 41,
                        "response": "equally yes/no",
                        "responseCoded": 0
                    },
                    {
                        "rt": 580,
                        "swatch": "BI2A00002",
                        "trialNum": 42,
                        "response": "equally yes/no",
                        "responseCoded": 0
                    },
                    {
                        "rt": 807,
                        "swatch": "BI2A00025",
                        "trialNum": 43,
                        "response": "equally yes/no",
                        "responseCoded": 0
                    },
                    {
                        "rt": 887,
                        "swatch": "BI2A00023",
                        "trialNum": 44,
                        "response": "equally yes/no",
                        "responseCoded": 0
                    },
                    {
                        "rt": 675,
                        "swatch": "BI2A00024",
                        "trialNum": 45,
                        "response": "equally yes/no",
                        "responseCoded": 0
                    },
                    {
                        "rt": 674,
                        "swatch": "BI2A00022",
                        "trialNum": 46,
                        "response": "equally yes/no",
                        "responseCoded": 0
                    },
                    {
                        "rt": 710,
                        "swatch": "BI2A00018",
                        "trialNum": 47,
                        "response": "equally yes/no",
                        "responseCoded": 0
                    },
                    {
                        "rt": 701,
                        "swatch": "BI2A00047",
                        "trialNum": 48,
                        "response": "equally yes/no",
                        "responseCoded": 0
                    }
                ],
                "gender": "male",
                "age": "33",
                "comments": "",
                "religion": [
                    "none"
                ],
                "condition": "feelings",
                "fingerprintData": {
                    "ip": "65.30.173.170",
                    "screenHeight": 1080,
                    "plugins": [
                        {
                            "description": "Enables Widevine licenses for playback of HTML audio/video content. (version: 1.4.6.758)",
                            "filename": "widevinecdmadapter.dll"
                        },
                        {
                            "description": "Shockwave Flash 16.0 r0",
                            "filename": "pepflashplayer.dll"
                        },
                        {
                            "description": "This plugin allows you to securely access other computers that have been shared with you. To use this plugin you must first install the <a href=\"https://chrome.google.com/remotedesktop\">Chrome Remote Desktop</a> webapp.",
                            "filename": "internal-remoting-viewer"
                        },
                        {
                            "description": "",
                            "filename": "internal-nacl-plugin"
                        },
                        {
                            "description": "",
                            "filename": "pdf.dll"
                        },
                        {
                            "description": "Intel web components for Intel\ufffd Identity Protection Technology",
                            "filename": "npIntelWebAPIIPT.dll"
                        },
                        {
                            "description": "Intel web components updater - Installs and updates the Intel web components",
                            "filename": "npIntelWebAPIUpdater.dll"
                        },
                        {
                            "description": "Pando Web Plugin",
                            "filename": "npPandoWebPlugin.dll"
                        },
                        {
                            "description": "VLC media player Web Plugin 2.1.3",
                            "filename": "npvlc.dll"
                        },
                        {
                            "description": "Unity Player 4.5.4f1",
                            "filename": "npUnity3D32.dll"
                        },
                        {
                            "description": "Google Update",
                            "filename": "npGoogleUpdate3.dll"
                        },
                        {
                            "description": "Version 5.40.2.0",
                            "filename": "npgoogletalk.dll"
                        },
                        {
                            "description": "Version 5.40.2.0",
                            "filename": "npo1d.dll"
                        },
                        {
                            "description": "Shockwave Flash 16.0 r0",
                            "filename": "NPSWF32_16_0_0_235.dll"
                        },
                        {
                            "description": "McAfee MSC FF plugin DLL",
                            "filename": "NPMCSN~1.DLL"
                        },
                        {
                            "description": "5.1.30514.0",
                            "filename": "npctrl.dll"
                        }
                    ],
                    "timezone": 360,
                    "colorDepth": 24,
                    "screenWidth": 1920,
                    "geo": {
                        "city": "South Milwaukee",
                        "region_code": "WI",
                        "region_name": "Wisconsin",
                        "ip": "65.30.173.170",
                        "time_zone": "America/Chicago",
                        "longitude": -87.861,
                        "metro_code": 617,
                        "latitude": 42.912,
                        "country_code": "US",
                        "country_name": "United States",
                        "zip_code": "53172"
                    },
                    "browser": "Mozilla/5.0 (Windows NT 6.3; WOW64) AppleWebKit/537.36 (KHTML, like Gecko) Chrome/40.0.2214.115 Safari/537.36"
                },
                "ethnicity": [
                    "white"
                ]
            }
        }
    },
    "AcceptTime": "2015-03-03T10:43:04Z",
    "HITId": "39TX062QX1XDAW3RDVV42F2R1TJX3X",
    "Assignment": "",
    "AssignmentStatus": "Approved",
    "SubmitTime": "2015-03-03T10:47:53Z"
}