{
    "ApprovalTime": "2015-03-03T11:12:36Z",
    "AutoApprovalTime": "2015-03-03T11:07:55Z",
    "AssignmentId": "3D3VGR7TA1OVZKF8UYUD2HCMDQQR3W",
    "WorkerId": "AUAN582MLI96N",
    "answers": {
        "data": {
            "trials": [],
            "condition": "hungry",
            "allData": {
                "education": "grad_degree",
                "englishNative": "yes_only",
                "trialData": [
                    {
                        "rt": 9239,
                        "swatch": "BI2A00041",
                        "trialNum": 1,
                        "response": "definitely no",
                        "responseCoded": 3
                    },
                    {
                        "rt": 2452,
                        "swatch": "BI2A00030",
                        "trialNum": 2,
                        "response": "definitely no",
                        "responseCoded": 3
                    },
                    {
                        "rt": 2944,
                        "swatch": "BI2A00048",
                        "trialNum": 3,
                        "response": "definitely no",
                        "responseCoded": 3
                    },
                    {
                        "rt": 3092,
                        "swatch": "BI2A00008",
                        "trialNum": 4,
                        "response": "definitely yes",
                        "responseCoded": 3
                    },
                    {
                        "rt": 3164,
                        "swatch": "BI2A00015",
                        "trialNum": 5,
                        "response": "probably yes",
                        "responseCoded": 2
                    },
                    {
                        "rt": 2512,
                        "swatch": "BI2A00017",
                        "trialNum": 6,
                        "response": "probably no",
                        "responseCoded": -2
                    },
                    {
                        "rt": 1495,
                        "swatch": "BI2A00006",
                        "trialNum": 7,
                        "response": "definitely yes",
                        "responseCoded": 3
                    },
                    {
                        "rt": 1046,
                        "swatch": "BI2A00002",
                        "trialNum": 8,
                        "response": "definitely yes",
                        "responseCoded": 3
                    },
                    {
                        "rt": 1998,
                        "swatch": "BI2A00021",
                        "trialNum": 9,
                        "response": "definitely no",
                        "responseCoded": 3
                    },
                    {
                        "rt": 2048,
                        "swatch": "BI2A00027",
                        "trialNum": 10,
                        "response": "definitely no",
                        "responseCoded": 3
                    },
                    {
                        "rt": 2057,
                        "swatch": "BI2A00047",
                        "trialNum": 11,
                        "response": "definitely no",
                        "responseCoded": 3
                    },
                    {
                        "rt": 1048,
                        "swatch": "BI2A00033",
                        "trialNum": 12,
                        "response": "definitely no",
                        "responseCoded": 3
                    },
                    {
                        "rt": 1817,
                        "swatch": "BI2A00003",
                        "trialNum": 13,
                        "response": "definitely yes",
                        "responseCoded": 3
                    },
                    {
                        "rt": 3659,
                        "swatch": "BI2A00034",
                        "trialNum": 14,
                        "response": "maybe yes",
                        "responseCoded": 1
                    },
                    {
                        "rt": 1584,
                        "swatch": "BI2A00014",
                        "trialNum": 15,
                        "response": "maybe yes",
                        "responseCoded": 1
                    },
                    {
                        "rt": 1747,
                        "swatch": "BI2A00031",
                        "trialNum": 16,
                        "response": "definitely no",
                        "responseCoded": 3
                    },
                    {
                        "rt": 1443,
                        "swatch": "BI2A00018",
                        "trialNum": 17,
                        "response": "definitely no",
                        "responseCoded": 3
                    },
                    {
                        "rt": 1079,
                        "swatch": "BI2A00032",
                        "trialNum": 18,
                        "response": "definitely no",
                        "responseCoded": 3
                    },
                    {
                        "rt": 2422,
                        "swatch": "BI2A00025",
                        "trialNum": 19,
                        "response": "equally yes/no",
                        "responseCoded": 0
                    },
                    {
                        "rt": 3852,
                        "swatch": "BI2A00010",
                        "trialNum": 20,
                        "response": "probably no",
                        "responseCoded": -2
                    },
                    {
                        "rt": 1750,
                        "swatch": "BI2A00019",
                        "trialNum": 21,
                        "response": "definitely yes",
                        "responseCoded": 3
                    },
                    {
                        "rt": 1146,
                        "swatch": "BI2A00016",
                        "trialNum": 22,
                        "response": "definitely yes",
                        "responseCoded": 3
                    },
                    {
                        "rt": 1545,
                        "swatch": "BI2A00020",
                        "trialNum": 23,
                        "response": "definitely yes",
                        "responseCoded": 3
                    },
                    {
                        "rt": 1483,
                        "swatch": "BI2A00045",
                        "trialNum": 24,
                        "response": "definitely no",
                        "responseCoded": 3
                    },
                    {
                        "rt": 1577,
                        "swatch": "BI2A00028",
                        "trialNum": 25,
                        "response": "definitely no",
                        "responseCoded": 3
                    },
                    {
                        "rt": 798,
                        "swatch": "BI2A00043",
                        "trialNum": 26,
                        "response": "definitely no",
                        "responseCoded": 3
                    },
                    {
                        "rt": 2414,
                        "swatch": "BI2A00023",
                        "trialNum": 27,
                        "response": "maybe yes",
                        "responseCoded": 1
                    },
                    {
                        "rt": 1478,
                        "swatch": "BI2A00001",
                        "trialNum": 28,
                        "response": "definitely yes",
                        "responseCoded": 3
                    },
                    {
                        "rt": 2589,
                        "swatch": "BI2A00029",
                        "trialNum": 29,
                        "response": "definitely no",
                        "responseCoded": 3
                    },
                    {
                        "rt": 1597,
                        "swatch": "BI2A00007",
                        "trialNum": 30,
                        "response": "definitely yes",
                        "responseCoded": 3
                    },
                    {
                        "rt": 3109,
                        "swatch": "BI2A00012",
                        "trialNum": 31,
                        "response": "equally yes/no",
                        "responseCoded": 0
                    },
                    {
                        "rt": 1861,
                        "swatch": "BI2A00036",
                        "trialNum": 32,
                        "response": "definitely no",
                        "responseCoded": 3
                    },
                    {
                        "rt": 961,
                        "swatch": "BI2A00039",
                        "trialNum": 33,
                        "response": "definitely no",
                        "responseCoded": 3
                    },
                    {
                        "rt": 879,
                        "swatch": "BI2A00044",
                        "trialNum": 34,
                        "response": "definitely no",
                        "responseCoded": 3
                    },
                    {
                        "rt": 1282,
                        "swatch": "BI2A00035",
                        "trialNum": 35,
                        "response": "definitely no",
                        "responseCoded": 3
                    },
                    {
                        "rt": 1197,
                        "swatch": "BI2A00046",
                        "trialNum": 36,
                        "response": "definitely no",
                        "responseCoded": 3
                    },
                    {
                        "rt": 1045,
                        "swatch": "BI2A00038",
                        "trialNum": 37,
                        "response": "definitely no",
                        "responseCoded": 3
                    },
                    {
                        "rt": 3672,
                        "swatch": "BI2A00004",
                        "trialNum": 38,
                        "response": "maybe yes",
                        "responseCoded": 1
                    },
                    {
                        "rt": 2660,
                        "swatch": "BI2A00013",
                        "trialNum": 39,
                        "response": "definitely yes",
                        "responseCoded": 3
                    },
                    {
                        "rt": 1148,
                        "swatch": "BI2A00026",
                        "trialNum": 40,
                        "response": "definitely yes",
                        "responseCoded": 3
                    },
                    {
                        "rt": 1765,
                        "swatch": "BI2A00011",
                        "trialNum": 41,
                        "response": "definitely yes",
                        "responseCoded": 3
                    },
                    {
                        "rt": 2247,
                        "swatch": "BI2A00037",
                        "trialNum": 42,
                        "response": "definitely no",
                        "responseCoded": 3
                    },
                    {
                        "rt": 2679,
                        "swatch": "BI2A00040",
                        "trialNum": 43,
                        "response": "definitely no",
                        "responseCoded": 3
                    },
                    {
                        "rt": 1364,
                        "swatch": "BI2A00042",
                        "trialNum": 44,
                        "response": "definitely no",
                        "responseCoded": 3
                    },
                    {
                        "rt": 1311,
                        "swatch": "BI2A00022",
                        "trialNum": 45,
                        "response": "definitely no",
                        "responseCoded": 3
                    },
                    {
                        "rt": 1496,
                        "swatch": "BI2A00005",
                        "trialNum": 46,
                        "response": "definitely yes",
                        "responseCoded": 3
                    },
                    {
                        "rt": 1312,
                        "swatch": "BI2A00009",
                        "trialNum": 47,
                        "response": "definitely yes",
                        "responseCoded": 3
                    },
                    {
                        "rt": 5725,
                        "swatch": "BI2A00024",
                        "trialNum": 48,
                        "response": "definitely yes",
                        "responseCoded": 3
                    }
                ],
                "gender": "male",
                "age": "36",
                "comments": "",
                "religion": [
                    "none"
                ],
                "condition": "hungry",
                "fingerprintData": {
                    "ip": "76.107.36.41",
                    "screenHeight": 1024,
                    "plugins": [],
                    "timezone": 360,
                    "colorDepth": 32,
                    "screenWidth": 768,
                    "geo": {
                        "city": "Stonewall",
                        "region_code": "LA",
                        "region_name": "Louisiana",
                        "ip": "76.107.36.41",
                        "time_zone": "America/Chicago",
                        "longitude": -93.792,
                        "metro_code": 612,
                        "latitude": 32.268,
                        "country_code": "US",
                        "country_name": "United States",
                        "zip_code": "71078"
                    },
                    "browser": "Mozilla/5.0 (iPad; CPU OS 8_1_3 like Mac OS X) AppleWebKit/600.1.4 (KHTML, like Gecko) Version/8.0 Mobile/12B466 Safari/600.1.4"
                },
                "ethnicity": [
                    "white"
                ]
            }
        }
    },
    "AcceptTime": "2015-03-03T10:58:11Z",
    "HITId": "39TX062QX1XDAW3RDVV42F2R1TJX3X",
    "Assignment": "",
    "AssignmentStatus": "Approved",
    "SubmitTime": "2015-03-03T11:02:55Z"
}