{
    "ApprovalTime": "2015-03-03T11:17:37Z",
    "AutoApprovalTime": "2015-03-03T11:14:04Z",
    "AssignmentId": "3DZQRBDBSMO70ZFL9NUISRHIZS93SW",
    "WorkerId": "A30IMFT43HT0RC",
    "answers": {
        "data": {
            "trials": [],
            "condition": "sense",
            "allData": {
                "education": "grad_degree",
                "englishNative": "yes_only",
                "trialData": [
                    {
                        "rt": 13815,
                        "swatch": "BI2A00025",
                        "trialNum": 1,
                        "response": "probably no",
                        "responseCoded": -2
                    },
                    {
                        "rt": 5145,
                        "swatch": "BI2A00002",
                        "trialNum": 2,
                        "response": "definitely yes",
                        "responseCoded": 3
                    },
                    {
                        "rt": 4560,
                        "swatch": "BI2A00028",
                        "trialNum": 3,
                        "response": "probably no",
                        "responseCoded": -2
                    },
                    {
                        "rt": 4429,
                        "swatch": "BI2A00014",
                        "trialNum": 4,
                        "response": "maybe yes",
                        "responseCoded": 1
                    },
                    {
                        "rt": 1936,
                        "swatch": "BI2A00045",
                        "trialNum": 5,
                        "response": "definitely no",
                        "responseCoded": 3
                    },
                    {
                        "rt": 3685,
                        "swatch": "BI2A00001",
                        "trialNum": 6,
                        "response": "definitely yes",
                        "responseCoded": 3
                    },
                    {
                        "rt": 4782,
                        "swatch": "BI2A00046",
                        "trialNum": 7,
                        "response": "definitely no",
                        "responseCoded": 3
                    },
                    {
                        "rt": 3953,
                        "swatch": "BI2A00033",
                        "trialNum": 8,
                        "response": "definitely no",
                        "responseCoded": 3
                    },
                    {
                        "rt": 6375,
                        "swatch": "BI2A00022",
                        "trialNum": 9,
                        "response": "definitely no",
                        "responseCoded": 3
                    },
                    {
                        "rt": 3346,
                        "swatch": "BI2A00035",
                        "trialNum": 10,
                        "response": "definitely no",
                        "responseCoded": 3
                    },
                    {
                        "rt": 5216,
                        "swatch": "BI2A00037",
                        "trialNum": 11,
                        "response": "definitely no",
                        "responseCoded": 3
                    },
                    {
                        "rt": 6333,
                        "swatch": "BI2A00004",
                        "trialNum": 12,
                        "response": "definitely yes",
                        "responseCoded": 3
                    },
                    {
                        "rt": 3658,
                        "swatch": "BI2A00003",
                        "trialNum": 13,
                        "response": "definitely yes",
                        "responseCoded": 3
                    },
                    {
                        "rt": 3469,
                        "swatch": "BI2A00016",
                        "trialNum": 14,
                        "response": "definitely yes",
                        "responseCoded": 3
                    },
                    {
                        "rt": 5873,
                        "swatch": "BI2A00041",
                        "trialNum": 15,
                        "response": "definitely no",
                        "responseCoded": 3
                    },
                    {
                        "rt": 3650,
                        "swatch": "BI2A00007",
                        "trialNum": 16,
                        "response": "probably yes",
                        "responseCoded": 2
                    },
                    {
                        "rt": 8285,
                        "swatch": "BI2A00034",
                        "trialNum": 17,
                        "response": "maybe yes",
                        "responseCoded": 1
                    },
                    {
                        "rt": 4488,
                        "swatch": "BI2A00027",
                        "trialNum": 18,
                        "response": "definitely no",
                        "responseCoded": 3
                    },
                    {
                        "rt": 6768,
                        "swatch": "BI2A00019",
                        "trialNum": 19,
                        "response": "maybe yes",
                        "responseCoded": 1
                    },
                    {
                        "rt": 5882,
                        "swatch": "BI2A00010",
                        "trialNum": 20,
                        "response": "probably yes",
                        "responseCoded": 2
                    },
                    {
                        "rt": 3152,
                        "swatch": "BI2A00031",
                        "trialNum": 21,
                        "response": "definitely no",
                        "responseCoded": 3
                    },
                    {
                        "rt": 4605,
                        "swatch": "BI2A00015",
                        "trialNum": 22,
                        "response": "definitely yes",
                        "responseCoded": 3
                    },
                    {
                        "rt": 2386,
                        "swatch": "BI2A00030",
                        "trialNum": 23,
                        "response": "definitely no",
                        "responseCoded": 3
                    },
                    {
                        "rt": 3769,
                        "swatch": "BI2A00021",
                        "trialNum": 24,
                        "response": "definitely no",
                        "responseCoded": 3
                    },
                    {
                        "rt": 3367,
                        "swatch": "BI2A00038",
                        "trialNum": 25,
                        "response": "definitely no",
                        "responseCoded": 3
                    },
                    {
                        "rt": 8486,
                        "swatch": "BI2A00018",
                        "trialNum": 26,
                        "response": "probably yes",
                        "responseCoded": 2
                    },
                    {
                        "rt": 9016,
                        "swatch": "BI2A00023",
                        "trialNum": 27,
                        "response": "maybe yes",
                        "responseCoded": 1
                    },
                    {
                        "rt": 2043,
                        "swatch": "BI2A00009",
                        "trialNum": 28,
                        "response": "definitely yes",
                        "responseCoded": 3
                    },
                    {
                        "rt": 4341,
                        "swatch": "BI2A00008",
                        "trialNum": 29,
                        "response": "probably yes",
                        "responseCoded": 2
                    },
                    {
                        "rt": 4138,
                        "swatch": "BI2A00020",
                        "trialNum": 30,
                        "response": "probably no",
                        "responseCoded": -2
                    },
                    {
                        "rt": 2952,
                        "swatch": "BI2A00039",
                        "trialNum": 31,
                        "response": "definitely no",
                        "responseCoded": 3
                    },
                    {
                        "rt": 2395,
                        "swatch": "BI2A00032",
                        "trialNum": 32,
                        "response": "definitely no",
                        "responseCoded": 3
                    },
                    {
                        "rt": 1954,
                        "swatch": "BI2A00005",
                        "trialNum": 33,
                        "response": "definitely yes",
                        "responseCoded": 3
                    },
                    {
                        "rt": 2285,
                        "swatch": "BI2A00048",
                        "trialNum": 34,
                        "response": "definitely no",
                        "responseCoded": 3
                    },
                    {
                        "rt": 2661,
                        "swatch": "BI2A00036",
                        "trialNum": 35,
                        "response": "definitely no",
                        "responseCoded": 3
                    },
                    {
                        "rt": 7232,
                        "swatch": "BI2A00029",
                        "trialNum": 36,
                        "response": "definitely no",
                        "responseCoded": 3
                    },
                    {
                        "rt": 11867,
                        "swatch": "BI2A00042",
                        "trialNum": 37,
                        "response": "probably no",
                        "responseCoded": -2
                    },
                    {
                        "rt": 9229,
                        "swatch": "BI2A00017",
                        "trialNum": 38,
                        "response": "maybe no",
                        "responseCoded": -1
                    },
                    {
                        "rt": 8736,
                        "swatch": "BI2A00047",
                        "trialNum": 39,
                        "response": "maybe yes",
                        "responseCoded": 1
                    },
                    {
                        "rt": 6747,
                        "swatch": "BI2A00026",
                        "trialNum": 40,
                        "response": "probably yes",
                        "responseCoded": 2
                    },
                    {
                        "rt": 2326,
                        "swatch": "BI2A00043",
                        "trialNum": 41,
                        "response": "definitely no",
                        "responseCoded": 3
                    },
                    {
                        "rt": 2136,
                        "swatch": "BI2A00006",
                        "trialNum": 42,
                        "response": "definitely yes",
                        "responseCoded": 3
                    },
                    {
                        "rt": 2014,
                        "swatch": "BI2A00024",
                        "trialNum": 43,
                        "response": "definitely yes",
                        "responseCoded": 3
                    },
                    {
                        "rt": 4591,
                        "swatch": "BI2A00044",
                        "trialNum": 44,
                        "response": "definitely no",
                        "responseCoded": 3
                    },
                    {
                        "rt": 4435,
                        "swatch": "BI2A00040",
                        "trialNum": 45,
                        "response": "definitely no",
                        "responseCoded": 3
                    },
                    {
                        "rt": 3555,
                        "swatch": "BI2A00012",
                        "trialNum": 46,
                        "response": "probably yes",
                        "responseCoded": 2
                    },
                    {
                        "rt": 1887,
                        "swatch": "BI2A00011",
                        "trialNum": 47,
                        "response": "definitely yes",
                        "responseCoded": 3
                    },
                    {
                        "rt": 3841,
                        "swatch": "BI2A00013",
                        "trialNum": 48,
                        "response": "maybe yes",
                        "responseCoded": 1
                    }
                ],
                "gender": "female",
                "age": "29",
                "comments": "The interface was very easy to work with; helped the process move along very smoothly!",
                "religion": [
                    "christianity_catholic"
                ],
                "condition": "sense",
                "fingerprintData": {},
                "ethnicity": [
                    "white"
                ]
            }
        }
    },
    "AcceptTime": "2015-03-03T11:03:07Z",
    "HITId": "39TX062QX1XDAW3RDVV42F2R1TJX3X",
    "Assignment": "",
    "AssignmentStatus": "Approved",
    "SubmitTime": "2015-03-03T11:09:04Z"
}