{
    "ApprovalTime": "2015-03-03T11:02:36Z",
    "AutoApprovalTime": "2015-03-03T11:01:22Z",
    "AssignmentId": "3EFVCAY5L4I02T21YAG0R7Y6JVOJ8O",
    "WorkerId": "A1H3TNUIQS76TM",
    "answers": {
        "data": {
            "trials": [],
            "condition": "animal",
            "allData": {
                "education": "hs_diploma",
                "englishNative": "yes_only",
                "trialData": [
                    {
                        "rt": 4949,
                        "swatch": "BI2A00012",
                        "trialNum": 1,
                        "response": "maybe yes",
                        "responseCoded": 1
                    },
                    {
                        "rt": 3721,
                        "swatch": "BI2A00040",
                        "trialNum": 2,
                        "response": "definitely no",
                        "responseCoded": 3
                    },
                    {
                        "rt": 2882,
                        "swatch": "BI2A00009",
                        "trialNum": 3,
                        "response": "probably yes",
                        "responseCoded": 2
                    },
                    {
                        "rt": 2449,
                        "swatch": "BI2A00007",
                        "trialNum": 4,
                        "response": "probably yes",
                        "responseCoded": 2
                    },
                    {
                        "rt": 3849,
                        "swatch": "BI2A00033",
                        "trialNum": 5,
                        "response": "probably no",
                        "responseCoded": -2
                    },
                    {
                        "rt": 3060,
                        "swatch": "BI2A00004",
                        "trialNum": 6,
                        "response": "probably yes",
                        "responseCoded": 2
                    },
                    {
                        "rt": 4150,
                        "swatch": "BI2A00047",
                        "trialNum": 7,
                        "response": "probably no",
                        "responseCoded": -2
                    },
                    {
                        "rt": 6306,
                        "swatch": "BI2A00017",
                        "trialNum": 8,
                        "response": "maybe no",
                        "responseCoded": -1
                    },
                    {
                        "rt": 2289,
                        "swatch": "BI2A00015",
                        "trialNum": 9,
                        "response": "maybe yes",
                        "responseCoded": 1
                    },
                    {
                        "rt": 1600,
                        "swatch": "BI2A00048",
                        "trialNum": 10,
                        "response": "definitely no",
                        "responseCoded": 3
                    },
                    {
                        "rt": 887,
                        "swatch": "BI2A00031",
                        "trialNum": 11,
                        "response": "definitely no",
                        "responseCoded": 3
                    },
                    {
                        "rt": 862,
                        "swatch": "BI2A00045",
                        "trialNum": 12,
                        "response": "definitely no",
                        "responseCoded": 3
                    },
                    {
                        "rt": 2895,
                        "swatch": "BI2A00027",
                        "trialNum": 13,
                        "response": "probably no",
                        "responseCoded": -2
                    },
                    {
                        "rt": 2464,
                        "swatch": "BI2A00034",
                        "trialNum": 14,
                        "response": "probably no",
                        "responseCoded": -2
                    },
                    {
                        "rt": 1763,
                        "swatch": "BI2A00014",
                        "trialNum": 15,
                        "response": "maybe yes",
                        "responseCoded": 1
                    },
                    {
                        "rt": 1267,
                        "swatch": "BI2A00002",
                        "trialNum": 16,
                        "response": "probably yes",
                        "responseCoded": 2
                    },
                    {
                        "rt": 1598,
                        "swatch": "BI2A00003",
                        "trialNum": 17,
                        "response": "probably yes",
                        "responseCoded": 2
                    },
                    {
                        "rt": 15054,
                        "swatch": "BI2A00041",
                        "trialNum": 18,
                        "response": "maybe yes",
                        "responseCoded": 1
                    },
                    {
                        "rt": 6365,
                        "swatch": "BI2A00035",
                        "trialNum": 19,
                        "response": "definitely no",
                        "responseCoded": 3
                    },
                    {
                        "rt": 2405,
                        "swatch": "BI2A00023",
                        "trialNum": 20,
                        "response": "probably no",
                        "responseCoded": -2
                    },
                    {
                        "rt": 2305,
                        "swatch": "BI2A00016",
                        "trialNum": 21,
                        "response": "maybe no",
                        "responseCoded": -1
                    },
                    {
                        "rt": 1500,
                        "swatch": "BI2A00024",
                        "trialNum": 22,
                        "response": "maybe no",
                        "responseCoded": -1
                    },
                    {
                        "rt": 1700,
                        "swatch": "BI2A00025",
                        "trialNum": 23,
                        "response": "probably no",
                        "responseCoded": -2
                    },
                    {
                        "rt": 2030,
                        "swatch": "BI2A00022",
                        "trialNum": 24,
                        "response": "equally yes/no",
                        "responseCoded": 0
                    },
                    {
                        "rt": 25587,
                        "swatch": "BI2A00039",
                        "trialNum": 25,
                        "response": "definitely no",
                        "responseCoded": 3
                    },
                    {
                        "rt": 2385,
                        "swatch": "BI2A00011",
                        "trialNum": 26,
                        "response": "definitely no",
                        "responseCoded": 3
                    },
                    {
                        "rt": 3031,
                        "swatch": "BI2A00043",
                        "trialNum": 27,
                        "response": "maybe yes",
                        "responseCoded": 1
                    },
                    {
                        "rt": 21442,
                        "swatch": "BI2A00038",
                        "trialNum": 28,
                        "response": "probably no",
                        "responseCoded": -2
                    },
                    {
                        "rt": 2282,
                        "swatch": "BI2A00030",
                        "trialNum": 29,
                        "response": "maybe no",
                        "responseCoded": -1
                    },
                    {
                        "rt": 1724,
                        "swatch": "BI2A00046",
                        "trialNum": 30,
                        "response": "definitely no",
                        "responseCoded": 3
                    },
                    {
                        "rt": 26821,
                        "swatch": "BI2A00001",
                        "trialNum": 31,
                        "response": "maybe yes",
                        "responseCoded": 1
                    },
                    {
                        "rt": 1097,
                        "swatch": "BI2A00005",
                        "trialNum": 32,
                        "response": "maybe yes",
                        "responseCoded": 1
                    },
                    {
                        "rt": 1662,
                        "swatch": "BI2A00044",
                        "trialNum": 33,
                        "response": "definitely no",
                        "responseCoded": 3
                    },
                    {
                        "rt": 1114,
                        "swatch": "BI2A00042",
                        "trialNum": 34,
                        "response": "definitely no",
                        "responseCoded": 3
                    },
                    {
                        "rt": 1935,
                        "swatch": "BI2A00010",
                        "trialNum": 35,
                        "response": "probably no",
                        "responseCoded": -2
                    },
                    {
                        "rt": 1935,
                        "swatch": "BI2A00028",
                        "trialNum": 36,
                        "response": "equally yes/no",
                        "responseCoded": 0
                    },
                    {
                        "rt": 30006,
                        "swatch": "BI2A00021",
                        "trialNum": 37,
                        "response": "maybe no",
                        "responseCoded": -1
                    },
                    {
                        "rt": 2063,
                        "swatch": "BI2A00019",
                        "trialNum": 38,
                        "response": "maybe yes",
                        "responseCoded": 1
                    },
                    {
                        "rt": 2252,
                        "swatch": "BI2A00036",
                        "trialNum": 39,
                        "response": "definitely no",
                        "responseCoded": 3
                    },
                    {
                        "rt": 1700,
                        "swatch": "BI2A00008",
                        "trialNum": 40,
                        "response": "maybe yes",
                        "responseCoded": 1
                    },
                    {
                        "rt": 1483,
                        "swatch": "BI2A00029",
                        "trialNum": 41,
                        "response": "definitely no",
                        "responseCoded": 3
                    },
                    {
                        "rt": 2141,
                        "swatch": "BI2A00006",
                        "trialNum": 42,
                        "response": "probably yes",
                        "responseCoded": 2
                    },
                    {
                        "rt": 2188,
                        "swatch": "BI2A00020",
                        "trialNum": 43,
                        "response": "probably no",
                        "responseCoded": -2
                    },
                    {
                        "rt": 38894,
                        "swatch": "BI2A00026",
                        "trialNum": 44,
                        "response": "probably no",
                        "responseCoded": -2
                    },
                    {
                        "rt": 1138,
                        "swatch": "BI2A00032",
                        "trialNum": 45,
                        "response": "maybe no",
                        "responseCoded": -1
                    },
                    {
                        "rt": 2157,
                        "swatch": "BI2A00018",
                        "trialNum": 46,
                        "response": "definitely no",
                        "responseCoded": 3
                    },
                    {
                        "rt": 1896,
                        "swatch": "BI2A00013",
                        "trialNum": 47,
                        "response": "equally yes/no",
                        "responseCoded": 0
                    },
                    {
                        "rt": 2880,
                        "swatch": "BI2A00037",
                        "trialNum": 48,
                        "response": "maybe no",
                        "responseCoded": -1
                    }
                ],
                "gender": "male",
                "age": "31",
                "comments": "none",
                "religion": [
                    "christianity_protestant"
                ],
                "condition": "animal",
                "fingerprintData": {},
                "ethnicity": [
                    "white"
                ]
            }
        }
    },
    "AcceptTime": "2015-03-03T10:50:14Z",
    "HITId": "39TX062QX1XDAW3RDVV42F2R1TJX3X",
    "Assignment": "",
    "AssignmentStatus": "Approved",
    "SubmitTime": "2015-03-03T10:56:22Z"
}