{
    "ApprovalTime": "2015-03-03T11:12:36Z",
    "AutoApprovalTime": "2015-03-03T11:08:07Z",
    "AssignmentId": "3EICBYG64552EWSEFMW5TTUP9M9JCU",
    "WorkerId": "A33IV4PMOZZSR1",
    "answers": {
        "data": {
            "trials": [],
            "condition": "sense",
            "allData": {
                "education": "grad_degree",
                "englishNative": "yes_only",
                "trialData": [
                    {
                        "rt": 4820,
                        "swatch": "BI2A00041",
                        "trialNum": 1,
                        "response": "maybe yes",
                        "responseCoded": 1
                    },
                    {
                        "rt": 4769,
                        "swatch": "BI2A00002",
                        "trialNum": 2,
                        "response": "definitely yes",
                        "responseCoded": 3
                    },
                    {
                        "rt": 2469,
                        "swatch": "BI2A00021",
                        "trialNum": 3,
                        "response": "definitely no",
                        "responseCoded": 3
                    },
                    {
                        "rt": 2491,
                        "swatch": "BI2A00048",
                        "trialNum": 4,
                        "response": "definitely no",
                        "responseCoded": 3
                    },
                    {
                        "rt": 1338,
                        "swatch": "BI2A00011",
                        "trialNum": 5,
                        "response": "definitely yes",
                        "responseCoded": 3
                    },
                    {
                        "rt": 1594,
                        "swatch": "BI2A00025",
                        "trialNum": 6,
                        "response": "definitely no",
                        "responseCoded": 3
                    },
                    {
                        "rt": 2615,
                        "swatch": "BI2A00033",
                        "trialNum": 7,
                        "response": "definitely no",
                        "responseCoded": 3
                    },
                    {
                        "rt": 1479,
                        "swatch": "BI2A00044",
                        "trialNum": 8,
                        "response": "definitely no",
                        "responseCoded": 3
                    },
                    {
                        "rt": 2131,
                        "swatch": "BI2A00040",
                        "trialNum": 9,
                        "response": "definitely no",
                        "responseCoded": 3
                    },
                    {
                        "rt": 1982,
                        "swatch": "BI2A00014",
                        "trialNum": 10,
                        "response": "probably yes",
                        "responseCoded": 2
                    },
                    {
                        "rt": 1585,
                        "swatch": "BI2A00022",
                        "trialNum": 11,
                        "response": "maybe yes",
                        "responseCoded": 1
                    },
                    {
                        "rt": 1615,
                        "swatch": "BI2A00012",
                        "trialNum": 12,
                        "response": "probably yes",
                        "responseCoded": 2
                    },
                    {
                        "rt": 1321,
                        "swatch": "BI2A00043",
                        "trialNum": 13,
                        "response": "definitely no",
                        "responseCoded": 3
                    },
                    {
                        "rt": 2542,
                        "swatch": "BI2A00016",
                        "trialNum": 14,
                        "response": "maybe yes",
                        "responseCoded": 1
                    },
                    {
                        "rt": 1932,
                        "swatch": "BI2A00026",
                        "trialNum": 15,
                        "response": "probably yes",
                        "responseCoded": 2
                    },
                    {
                        "rt": 1657,
                        "swatch": "BI2A00010",
                        "trialNum": 16,
                        "response": "definitely yes",
                        "responseCoded": 3
                    },
                    {
                        "rt": 1349,
                        "swatch": "BI2A00013",
                        "trialNum": 17,
                        "response": "maybe yes",
                        "responseCoded": 1
                    },
                    {
                        "rt": 1183,
                        "swatch": "BI2A00045",
                        "trialNum": 18,
                        "response": "definitely no",
                        "responseCoded": 3
                    },
                    {
                        "rt": 1361,
                        "swatch": "BI2A00004",
                        "trialNum": 19,
                        "response": "maybe yes",
                        "responseCoded": 1
                    },
                    {
                        "rt": 2451,
                        "swatch": "BI2A00019",
                        "trialNum": 20,
                        "response": "probably yes",
                        "responseCoded": 2
                    },
                    {
                        "rt": 1238,
                        "swatch": "BI2A00006",
                        "trialNum": 21,
                        "response": "definitely yes",
                        "responseCoded": 3
                    },
                    {
                        "rt": 1108,
                        "swatch": "BI2A00038",
                        "trialNum": 22,
                        "response": "definitely no",
                        "responseCoded": 3
                    },
                    {
                        "rt": 1956,
                        "swatch": "BI2A00015",
                        "trialNum": 23,
                        "response": "definitely yes",
                        "responseCoded": 3
                    },
                    {
                        "rt": 1821,
                        "swatch": "BI2A00001",
                        "trialNum": 24,
                        "response": "probably yes",
                        "responseCoded": 2
                    },
                    {
                        "rt": 1401,
                        "swatch": "BI2A00037",
                        "trialNum": 25,
                        "response": "definitely no",
                        "responseCoded": 3
                    },
                    {
                        "rt": 2206,
                        "swatch": "BI2A00030",
                        "trialNum": 26,
                        "response": "definitely no",
                        "responseCoded": 3
                    },
                    {
                        "rt": 883,
                        "swatch": "BI2A00036",
                        "trialNum": 27,
                        "response": "definitely no",
                        "responseCoded": 3
                    },
                    {
                        "rt": 1642,
                        "swatch": "BI2A00023",
                        "trialNum": 28,
                        "response": "definitely no",
                        "responseCoded": 3
                    },
                    {
                        "rt": 3824,
                        "swatch": "BI2A00028",
                        "trialNum": 29,
                        "response": "probably no",
                        "responseCoded": -2
                    },
                    {
                        "rt": 2159,
                        "swatch": "BI2A00042",
                        "trialNum": 30,
                        "response": "definitely no",
                        "responseCoded": 3
                    },
                    {
                        "rt": 1901,
                        "swatch": "BI2A00005",
                        "trialNum": 31,
                        "response": "definitely yes",
                        "responseCoded": 3
                    },
                    {
                        "rt": 3126,
                        "swatch": "BI2A00047",
                        "trialNum": 32,
                        "response": "definitely no",
                        "responseCoded": 3
                    },
                    {
                        "rt": 1198,
                        "swatch": "BI2A00034",
                        "trialNum": 33,
                        "response": "definitely no",
                        "responseCoded": 3
                    },
                    {
                        "rt": 1483,
                        "swatch": "BI2A00032",
                        "trialNum": 34,
                        "response": "definitely no",
                        "responseCoded": 3
                    },
                    {
                        "rt": 1437,
                        "swatch": "BI2A00046",
                        "trialNum": 35,
                        "response": "definitely no",
                        "responseCoded": 3
                    },
                    {
                        "rt": 909,
                        "swatch": "BI2A00039",
                        "trialNum": 36,
                        "response": "definitely no",
                        "responseCoded": 3
                    },
                    {
                        "rt": 3106,
                        "swatch": "BI2A00020",
                        "trialNum": 37,
                        "response": "maybe no",
                        "responseCoded": -1
                    },
                    {
                        "rt": 1794,
                        "swatch": "BI2A00007",
                        "trialNum": 38,
                        "response": "definitely yes",
                        "responseCoded": 3
                    },
                    {
                        "rt": 1183,
                        "swatch": "BI2A00031",
                        "trialNum": 39,
                        "response": "definitely no",
                        "responseCoded": 3
                    },
                    {
                        "rt": 901,
                        "swatch": "BI2A00029",
                        "trialNum": 40,
                        "response": "definitely no",
                        "responseCoded": 3
                    },
                    {
                        "rt": 1356,
                        "swatch": "BI2A00035",
                        "trialNum": 41,
                        "response": "definitely no",
                        "responseCoded": 3
                    },
                    {
                        "rt": 4600,
                        "swatch": "BI2A00018",
                        "trialNum": 42,
                        "response": "maybe yes",
                        "responseCoded": 1
                    },
                    {
                        "rt": 1598,
                        "swatch": "BI2A00024",
                        "trialNum": 43,
                        "response": "probably no",
                        "responseCoded": -2
                    },
                    {
                        "rt": 1556,
                        "swatch": "BI2A00008",
                        "trialNum": 44,
                        "response": "definitely yes",
                        "responseCoded": 3
                    },
                    {
                        "rt": 1165,
                        "swatch": "BI2A00017",
                        "trialNum": 45,
                        "response": "definitely no",
                        "responseCoded": 3
                    },
                    {
                        "rt": 1184,
                        "swatch": "BI2A00003",
                        "trialNum": 46,
                        "response": "definitely yes",
                        "responseCoded": 3
                    },
                    {
                        "rt": 1463,
                        "swatch": "BI2A00027",
                        "trialNum": 47,
                        "response": "definitely no",
                        "responseCoded": 3
                    },
                    {
                        "rt": 1793,
                        "swatch": "BI2A00009",
                        "trialNum": 48,
                        "response": "probably yes",
                        "responseCoded": 2
                    }
                ],
                "gender": "male",
                "age": "27",
                "comments": "",
                "religion": [
                    "none"
                ],
                "condition": "sense",
                "fingerprintData": {
                    "ip": "74.75.170.31",
                    "screenHeight": 1080,
                    "plugins": [
                        {
                            "description": "Enables Widevine licenses for playback of HTML audio/video content. (version: 1.4.6.758)",
                            "filename": "widevinecdmadapter.dll"
                        },
                        {
                            "description": "Shockwave Flash 16.0 r0",
                            "filename": "pepflashplayer.dll"
                        },
                        {
                            "description": "This plugin allows you to securely access other computers that have been shared with you. To use this plugin you must first install the <a href=\"https://chrome.google.com/remotedesktop\">Chrome Remote Desktop</a> webapp.",
                            "filename": "internal-remoting-viewer"
                        },
                        {
                            "description": "",
                            "filename": "internal-nacl-plugin"
                        },
                        {
                            "description": "",
                            "filename": "pdf.dll"
                        },
                        {
                            "description": "Office Authorization plug-in for NPAPI browsers",
                            "filename": "NPAUTHZ.DLL"
                        },
                        {
                            "description": "The plug-in allows you to open and edit files using Microsoft Office applications",
                            "filename": "NPSPWRAP.DLL"
                        },
                        {
                            "description": "2.1.7",
                            "filename": "npesnlaunch.dll"
                        },
                        {
                            "description": "2.3.0",
                            "filename": "npesnlaunch.dll"
                        },
                        {
                            "description": "0.70.4",
                            "filename": "npesnsonar.dll"
                        },
                        {
                            "description": "GEPlugin",
                            "filename": "npgeplugin.dll"
                        },
                        {
                            "description": "Intel web components for Intel\ufffd Identity Protection Technology",
                            "filename": "npIntelWebAPIIPT.dll"
                        },
                        {
                            "description": "Intel web components updater - Installs and updates the Intel web components",
                            "filename": "npIntelWebAPIUpdater.dll"
                        },
                        {
                            "description": "NPRuntime Script Plug-in Library for Java(TM) Deploy",
                            "filename": "npDeployJava1.dll"
                        },
                        {
                            "description": "Next Generation Java Plug-in 10.71.2 for Mozilla browsers",
                            "filename": "npjp2.dll"
                        },
                        {
                            "description": "Pando Web Plugin",
                            "filename": "npPandoWebPlugin.dll"
                        },
                        {
                            "description": "Version 0.9.18, copyright 2006-2010 Veetle Inc<br><a href=\"http://www.veetle.com/\">http://www.veetle.com/</a>",
                            "filename": "npvlc.dll"
                        },
                        {
                            "description": "Version 0.9.19, Copyright 2006-2012 Veetle Inc<br><a href=\"http://www.veetle.com/\">http://www.veetle.com/</a>",
                            "filename": "npVeetle.dll"
                        },
                        {
                            "description": "iTunes Detector Plug-in",
                            "filename": "npitunes.dll"
                        },
                        {
                            "description": "Happy Cloud Web Plugin",
                            "filename": "npHappyCloudPlugin.dll"
                        },
                        {
                            "description": "QUAKE LIVE",
                            "filename": "npquakezero.dll"
                        },
                        {
                            "description": "Unity Player 4.2.0f4",
                            "filename": "npUnity3D32.dll"
                        },
                        {
                            "description": "Google Update",
                            "filename": "npGoogleUpdate3.dll"
                        },
                        {
                            "description": "Version 5.40.2.0",
                            "filename": "npgoogletalk.dll"
                        },
                        {
                            "description": "Version 5.40.2.0",
                            "filename": "npo1d.dll"
                        },
                        {
                            "description": "Raidcall plugin",
                            "filename": "nprcplugin.dll"
                        },
                        {
                            "description": "Shockwave Flash 16.0 r0",
                            "filename": "NPSWF32_16_0_0_305.dll"
                        },
                        {
                            "description": "5.1.31211.0",
                            "filename": "npctrl.dll"
                        }
                    ],
                    "timezone": 300,
                    "colorDepth": 24,
                    "screenWidth": 1920,
                    "geo": {
                        "city": "Waterville",
                        "region_code": "ME",
                        "region_name": "Maine",
                        "ip": "74.75.170.31",
                        "time_zone": "America/New_York",
                        "longitude": -69.632,
                        "metro_code": 500,
                        "latitude": 44.552,
                        "country_code": "US",
                        "country_name": "United States",
                        "zip_code": "04901"
                    },
                    "browser": "Mozilla/5.0 (Windows NT 6.3; WOW64) AppleWebKit/537.36 (KHTML, like Gecko) Chrome/40.0.2214.115 Safari/537.36"
                },
                "ethnicity": [
                    "white"
                ]
            }
        }
    },
    "AcceptTime": "2015-03-03T10:58:16Z",
    "HITId": "39TX062QX1XDAW3RDVV42F2R1TJX3X",
    "Assignment": "",
    "AssignmentStatus": "Approved",
    "SubmitTime": "2015-03-03T11:03:07Z"
}