{
    "ApprovalTime": "2015-03-03T11:22:37Z",
    "AutoApprovalTime": "2015-03-03T11:20:41Z",
    "AssignmentId": "3G0WWMR1UWT2RNTIZ2PS650NMKENQ4",
    "WorkerId": "AF18OIZ0GWGP2",
    "answers": {
        "data": {
            "trials": [],
            "condition": "think",
            "allData": {
                "education": "college_bachDegree",
                "englishNative": "yes_only",
                "trialData": [
                    {
                        "rt": 8038,
                        "swatch": "BI2A00009",
                        "trialNum": 1,
                        "response": "probably yes",
                        "responseCoded": 2
                    },
                    {
                        "rt": 6950,
                        "swatch": "BI2A00008",
                        "trialNum": 2,
                        "response": "probably yes",
                        "responseCoded": 2
                    },
                    {
                        "rt": 4976,
                        "swatch": "BI2A00010",
                        "trialNum": 3,
                        "response": "probably yes",
                        "responseCoded": 2
                    },
                    {
                        "rt": 6482,
                        "swatch": "BI2A00032",
                        "trialNum": 4,
                        "response": "probably no",
                        "responseCoded": -2
                    },
                    {
                        "rt": 2310,
                        "swatch": "BI2A00025",
                        "trialNum": 5,
                        "response": "definitely no",
                        "responseCoded": 3
                    },
                    {
                        "rt": 3957,
                        "swatch": "BI2A00003",
                        "trialNum": 6,
                        "response": "probably yes",
                        "responseCoded": 2
                    },
                    {
                        "rt": 2463,
                        "swatch": "BI2A00007",
                        "trialNum": 7,
                        "response": "probably yes",
                        "responseCoded": 2
                    },
                    {
                        "rt": 1747,
                        "swatch": "BI2A00026",
                        "trialNum": 8,
                        "response": "probably yes",
                        "responseCoded": 2
                    },
                    {
                        "rt": 3213,
                        "swatch": "BI2A00021",
                        "trialNum": 9,
                        "response": "definitely no",
                        "responseCoded": 3
                    },
                    {
                        "rt": 1868,
                        "swatch": "BI2A00005",
                        "trialNum": 10,
                        "response": "probably yes",
                        "responseCoded": 2
                    },
                    {
                        "rt": 1546,
                        "swatch": "BI2A00004",
                        "trialNum": 11,
                        "response": "probably yes",
                        "responseCoded": 2
                    },
                    {
                        "rt": 1820,
                        "swatch": "BI2A00035",
                        "trialNum": 12,
                        "response": "definitely no",
                        "responseCoded": 3
                    },
                    {
                        "rt": 1811,
                        "swatch": "BI2A00017",
                        "trialNum": 13,
                        "response": "definitely no",
                        "responseCoded": 3
                    },
                    {
                        "rt": 14024,
                        "swatch": "BI2A00014",
                        "trialNum": 14,
                        "response": "maybe yes",
                        "responseCoded": 1
                    },
                    {
                        "rt": 2450,
                        "swatch": "BI2A00022",
                        "trialNum": 15,
                        "response": "probably no",
                        "responseCoded": -2
                    },
                    {
                        "rt": 6383,
                        "swatch": "BI2A00024",
                        "trialNum": 16,
                        "response": "probably yes",
                        "responseCoded": 2
                    },
                    {
                        "rt": 8207,
                        "swatch": "BI2A00018",
                        "trialNum": 17,
                        "response": "equally yes/no",
                        "responseCoded": 0
                    },
                    {
                        "rt": 2227,
                        "swatch": "BI2A00046",
                        "trialNum": 18,
                        "response": "definitely no",
                        "responseCoded": 3
                    },
                    {
                        "rt": 2559,
                        "swatch": "BI2A00015",
                        "trialNum": 19,
                        "response": "probably yes",
                        "responseCoded": 2
                    },
                    {
                        "rt": 1737,
                        "swatch": "BI2A00012",
                        "trialNum": 20,
                        "response": "probably yes",
                        "responseCoded": 2
                    },
                    {
                        "rt": 3204,
                        "swatch": "BI2A00037",
                        "trialNum": 21,
                        "response": "definitely no",
                        "responseCoded": 3
                    },
                    {
                        "rt": 2494,
                        "swatch": "BI2A00019",
                        "trialNum": 22,
                        "response": "probably yes",
                        "responseCoded": 2
                    },
                    {
                        "rt": 3484,
                        "swatch": "BI2A00013",
                        "trialNum": 23,
                        "response": "probably yes",
                        "responseCoded": 2
                    },
                    {
                        "rt": 2712,
                        "swatch": "BI2A00001",
                        "trialNum": 24,
                        "response": "probably yes",
                        "responseCoded": 2
                    },
                    {
                        "rt": 1715,
                        "swatch": "BI2A00038",
                        "trialNum": 25,
                        "response": "definitely no",
                        "responseCoded": 3
                    },
                    {
                        "rt": 1859,
                        "swatch": "BI2A00030",
                        "trialNum": 26,
                        "response": "definitely no",
                        "responseCoded": 3
                    },
                    {
                        "rt": 1206,
                        "swatch": "BI2A00041",
                        "trialNum": 27,
                        "response": "definitely no",
                        "responseCoded": 3
                    },
                    {
                        "rt": 1078,
                        "swatch": "BI2A00044",
                        "trialNum": 28,
                        "response": "definitely no",
                        "responseCoded": 3
                    },
                    {
                        "rt": 2608,
                        "swatch": "BI2A00011",
                        "trialNum": 29,
                        "response": "probably yes",
                        "responseCoded": 2
                    },
                    {
                        "rt": 2614,
                        "swatch": "BI2A00042",
                        "trialNum": 30,
                        "response": "definitely no",
                        "responseCoded": 3
                    },
                    {
                        "rt": 1044,
                        "swatch": "BI2A00031",
                        "trialNum": 31,
                        "response": "definitely no",
                        "responseCoded": 3
                    },
                    {
                        "rt": 860,
                        "swatch": "BI2A00036",
                        "trialNum": 32,
                        "response": "definitely no",
                        "responseCoded": 3
                    },
                    {
                        "rt": 813,
                        "swatch": "BI2A00040",
                        "trialNum": 33,
                        "response": "definitely no",
                        "responseCoded": 3
                    },
                    {
                        "rt": 1030,
                        "swatch": "BI2A00033",
                        "trialNum": 34,
                        "response": "definitely no",
                        "responseCoded": 3
                    },
                    {
                        "rt": 4350,
                        "swatch": "BI2A00034",
                        "trialNum": 35,
                        "response": "definitely no",
                        "responseCoded": 3
                    },
                    {
                        "rt": 1706,
                        "swatch": "BI2A00045",
                        "trialNum": 36,
                        "response": "definitely no",
                        "responseCoded": 3
                    },
                    {
                        "rt": 2479,
                        "swatch": "BI2A00006",
                        "trialNum": 37,
                        "response": "probably yes",
                        "responseCoded": 2
                    },
                    {
                        "rt": 1602,
                        "swatch": "BI2A00002",
                        "trialNum": 38,
                        "response": "probably yes",
                        "responseCoded": 2
                    },
                    {
                        "rt": 1697,
                        "swatch": "BI2A00039",
                        "trialNum": 39,
                        "response": "definitely no",
                        "responseCoded": 3
                    },
                    {
                        "rt": 1945,
                        "swatch": "BI2A00029",
                        "trialNum": 40,
                        "response": "definitely no",
                        "responseCoded": 3
                    },
                    {
                        "rt": 2887,
                        "swatch": "BI2A00020",
                        "trialNum": 41,
                        "response": "definitely no",
                        "responseCoded": 3
                    },
                    {
                        "rt": 11702,
                        "swatch": "BI2A00028",
                        "trialNum": 42,
                        "response": "probably no",
                        "responseCoded": -2
                    },
                    {
                        "rt": 1662,
                        "swatch": "BI2A00027",
                        "trialNum": 43,
                        "response": "definitely no",
                        "responseCoded": 3
                    },
                    {
                        "rt": 7082,
                        "swatch": "BI2A00023",
                        "trialNum": 44,
                        "response": "definitely no",
                        "responseCoded": 3
                    },
                    {
                        "rt": 876,
                        "swatch": "BI2A00047",
                        "trialNum": 45,
                        "response": "definitely no",
                        "responseCoded": 3
                    },
                    {
                        "rt": 2728,
                        "swatch": "BI2A00016",
                        "trialNum": 46,
                        "response": "probably yes",
                        "responseCoded": 2
                    },
                    {
                        "rt": 3837,
                        "swatch": "BI2A00048",
                        "trialNum": 47,
                        "response": "definitely no",
                        "responseCoded": 3
                    },
                    {
                        "rt": 1210,
                        "swatch": "BI2A00043",
                        "trialNum": 48,
                        "response": "definitely no",
                        "responseCoded": 3
                    }
                ],
                "gender": "female",
                "age": "39",
                "comments": "I do think that animals can think, but I wasn't quite sure if the pictures were animals or just their hides.",
                "religion": [
                    "none"
                ],
                "condition": "think",
                "fingerprintData": {
                    "ip": "108.104.200.31",
                    "screenHeight": 768,
                    "plugins": [
                        {
                            "description": "Shockwave Flash 16.0 r0",
                            "filename": "Flash32_16_0_0_305.ocx"
                        },
                        {
                            "description": "5.1.30514.0",
                            "filename": "npctrl.dll"
                        }
                    ],
                    "timezone": 420,
                    "colorDepth": 24,
                    "screenWidth": 1366,
                    "geo": {
                        "city": "",
                        "region_code": "",
                        "region_name": "",
                        "ip": "108.104.200.31",
                        "time_zone": "",
                        "longitude": -97,
                        "metro_code": 0,
                        "latitude": 38,
                        "country_code": "US",
                        "country_name": "United States",
                        "zip_code": ""
                    },
                    "browser": "Mozilla/5.0 (Windows NT 6.1; WOW64; Trident/7.0; SLCC2; .NET CLR 2.0.50727; .NET CLR 3.5.30729; .NET CLR 3.0.30729; Media Center PC 6.0; .NET4.0C; .NET4.0E; rv:11.0) like Gecko"
                },
                "ethnicity": [
                    "white"
                ]
            }
        }
    },
    "AcceptTime": "2015-03-03T11:04:25Z",
    "HITId": "39TX062QX1XDAW3RDVV42F2R1TJX3X",
    "Assignment": "",
    "AssignmentStatus": "Approved",
    "SubmitTime": "2015-03-03T11:15:41Z"
}