{
    "ApprovalTime": "2015-03-03T10:57:37Z",
    "AutoApprovalTime": "2015-03-03T10:57:08Z",
    "AssignmentId": "3G5F9DBFOQ62MZ3OI3OP782ZH0KVHX",
    "WorkerId": "A2DFNNDO9YE0NL",
    "answers": {
        "data": {
            "trials": [],
            "condition": "sense",
            "allData": {
                "education": "hs_diploma",
                "englishNative": "yes_only",
                "trialData": [
                    {
                        "rt": 12787,
                        "swatch": "BI2A00006",
                        "trialNum": 1,
                        "response": "definitely yes",
                        "responseCoded": 3
                    },
                    {
                        "rt": 3038,
                        "swatch": "BI2A00045",
                        "trialNum": 2,
                        "response": "definitely no",
                        "responseCoded": 3
                    },
                    {
                        "rt": 3247,
                        "swatch": "BI2A00004",
                        "trialNum": 3,
                        "response": "probably yes",
                        "responseCoded": 2
                    },
                    {
                        "rt": 5394,
                        "swatch": "BI2A00025",
                        "trialNum": 4,
                        "response": "maybe no",
                        "responseCoded": -1
                    },
                    {
                        "rt": 6252,
                        "swatch": "BI2A00008",
                        "trialNum": 5,
                        "response": "equally yes/no",
                        "responseCoded": 0
                    },
                    {
                        "rt": 2500,
                        "swatch": "BI2A00040",
                        "trialNum": 6,
                        "response": "definitely no",
                        "responseCoded": 3
                    },
                    {
                        "rt": 2132,
                        "swatch": "BI2A00001",
                        "trialNum": 7,
                        "response": "maybe yes",
                        "responseCoded": 1
                    },
                    {
                        "rt": 2963,
                        "swatch": "BI2A00017",
                        "trialNum": 8,
                        "response": "maybe no",
                        "responseCoded": -1
                    },
                    {
                        "rt": 2969,
                        "swatch": "BI2A00037",
                        "trialNum": 9,
                        "response": "probably no",
                        "responseCoded": -2
                    },
                    {
                        "rt": 1416,
                        "swatch": "BI2A00021",
                        "trialNum": 10,
                        "response": "definitely no",
                        "responseCoded": 3
                    },
                    {
                        "rt": 1953,
                        "swatch": "BI2A00036",
                        "trialNum": 11,
                        "response": "probably no",
                        "responseCoded": -2
                    },
                    {
                        "rt": 2056,
                        "swatch": "BI2A00035",
                        "trialNum": 12,
                        "response": "definitely no",
                        "responseCoded": 3
                    },
                    {
                        "rt": 5148,
                        "swatch": "BI2A00011",
                        "trialNum": 13,
                        "response": "definitely yes",
                        "responseCoded": 3
                    },
                    {
                        "rt": 1715,
                        "swatch": "BI2A00002",
                        "trialNum": 14,
                        "response": "probably yes",
                        "responseCoded": 2
                    },
                    {
                        "rt": 1917,
                        "swatch": "BI2A00029",
                        "trialNum": 15,
                        "response": "probably no",
                        "responseCoded": -2
                    },
                    {
                        "rt": 1638,
                        "swatch": "BI2A00005",
                        "trialNum": 16,
                        "response": "probably yes",
                        "responseCoded": 2
                    },
                    {
                        "rt": 1470,
                        "swatch": "BI2A00046",
                        "trialNum": 17,
                        "response": "definitely no",
                        "responseCoded": 3
                    },
                    {
                        "rt": 2085,
                        "swatch": "BI2A00013",
                        "trialNum": 18,
                        "response": "maybe yes",
                        "responseCoded": 1
                    },
                    {
                        "rt": 2739,
                        "swatch": "BI2A00012",
                        "trialNum": 19,
                        "response": "probably yes",
                        "responseCoded": 2
                    },
                    {
                        "rt": 1378,
                        "swatch": "BI2A00048",
                        "trialNum": 20,
                        "response": "definitely no",
                        "responseCoded": 3
                    },
                    {
                        "rt": 2514,
                        "swatch": "BI2A00043",
                        "trialNum": 21,
                        "response": "probably no",
                        "responseCoded": -2
                    },
                    {
                        "rt": 2440,
                        "swatch": "BI2A00027",
                        "trialNum": 22,
                        "response": "probably no",
                        "responseCoded": -2
                    },
                    {
                        "rt": 2848,
                        "swatch": "BI2A00024",
                        "trialNum": 23,
                        "response": "equally yes/no",
                        "responseCoded": 0
                    },
                    {
                        "rt": 3301,
                        "swatch": "BI2A00026",
                        "trialNum": 24,
                        "response": "equally yes/no",
                        "responseCoded": 0
                    },
                    {
                        "rt": 2661,
                        "swatch": "BI2A00028",
                        "trialNum": 25,
                        "response": "maybe no",
                        "responseCoded": -1
                    },
                    {
                        "rt": 5466,
                        "swatch": "BI2A00023",
                        "trialNum": 26,
                        "response": "maybe no",
                        "responseCoded": -1
                    },
                    {
                        "rt": 4401,
                        "swatch": "BI2A00039",
                        "trialNum": 27,
                        "response": "definitely no",
                        "responseCoded": 3
                    },
                    {
                        "rt": 3092,
                        "swatch": "BI2A00015",
                        "trialNum": 28,
                        "response": "probably yes",
                        "responseCoded": 2
                    },
                    {
                        "rt": 1840,
                        "swatch": "BI2A00033",
                        "trialNum": 29,
                        "response": "probably no",
                        "responseCoded": -2
                    },
                    {
                        "rt": 2208,
                        "swatch": "BI2A00016",
                        "trialNum": 30,
                        "response": "maybe no",
                        "responseCoded": -1
                    },
                    {
                        "rt": 3725,
                        "swatch": "BI2A00018",
                        "trialNum": 31,
                        "response": "definitely no",
                        "responseCoded": 3
                    },
                    {
                        "rt": 3055,
                        "swatch": "BI2A00020",
                        "trialNum": 32,
                        "response": "maybe no",
                        "responseCoded": -1
                    },
                    {
                        "rt": 1899,
                        "swatch": "BI2A00010",
                        "trialNum": 33,
                        "response": "maybe yes",
                        "responseCoded": 1
                    },
                    {
                        "rt": 2031,
                        "swatch": "BI2A00038",
                        "trialNum": 34,
                        "response": "definitely no",
                        "responseCoded": 3
                    },
                    {
                        "rt": 901,
                        "swatch": "BI2A00031",
                        "trialNum": 35,
                        "response": "definitely no",
                        "responseCoded": 3
                    },
                    {
                        "rt": 3755,
                        "swatch": "BI2A00009",
                        "trialNum": 36,
                        "response": "definitely yes",
                        "responseCoded": 3
                    },
                    {
                        "rt": 5041,
                        "swatch": "BI2A00041",
                        "trialNum": 37,
                        "response": "probably no",
                        "responseCoded": -2
                    },
                    {
                        "rt": 5333,
                        "swatch": "BI2A00034",
                        "trialNum": 38,
                        "response": "probably no",
                        "responseCoded": -2
                    },
                    {
                        "rt": 1825,
                        "swatch": "BI2A00007",
                        "trialNum": 39,
                        "response": "probably yes",
                        "responseCoded": 2
                    },
                    {
                        "rt": 3484,
                        "swatch": "BI2A00022",
                        "trialNum": 40,
                        "response": "equally yes/no",
                        "responseCoded": 0
                    },
                    {
                        "rt": 2580,
                        "swatch": "BI2A00044",
                        "trialNum": 41,
                        "response": "definitely no",
                        "responseCoded": 3
                    },
                    {
                        "rt": 3455,
                        "swatch": "BI2A00030",
                        "trialNum": 42,
                        "response": "probably no",
                        "responseCoded": -2
                    },
                    {
                        "rt": 2523,
                        "swatch": "BI2A00019",
                        "trialNum": 43,
                        "response": "maybe yes",
                        "responseCoded": 1
                    },
                    {
                        "rt": 1500,
                        "swatch": "BI2A00032",
                        "trialNum": 44,
                        "response": "maybe yes",
                        "responseCoded": 1
                    },
                    {
                        "rt": 2647,
                        "swatch": "BI2A00003",
                        "trialNum": 45,
                        "response": "probably yes",
                        "responseCoded": 2
                    },
                    {
                        "rt": 4211,
                        "swatch": "BI2A00042",
                        "trialNum": 46,
                        "response": "probably no",
                        "responseCoded": -2
                    },
                    {
                        "rt": 1444,
                        "swatch": "BI2A00047",
                        "trialNum": 47,
                        "response": "probably no",
                        "responseCoded": -2
                    },
                    {
                        "rt": 1516,
                        "swatch": "BI2A00014",
                        "trialNum": 48,
                        "response": "maybe yes",
                        "responseCoded": 1
                    }
                ],
                "gender": "male",
                "age": "32",
                "comments": "",
                "religion": [
                    "none"
                ],
                "condition": "sense",
                "fingerprintData": {
                    "ip": "67.149.100.221",
                    "screenHeight": 1080,
                    "plugins": [
                        {
                            "description": "Enables Widevine licenses for playback of HTML audio/video content. (version: 1.4.6.758)",
                            "filename": "widevinecdmadapter.dll"
                        },
                        {
                            "description": "Shockwave Flash 16.0 r0",
                            "filename": "pepflashplayer.dll"
                        },
                        {
                            "description": "This plugin allows you to securely access other computers that have been shared with you. To use this plugin you must first install the <a href=\"https://chrome.google.com/remotedesktop\">Chrome Remote Desktop</a> webapp.",
                            "filename": "internal-remoting-viewer"
                        },
                        {
                            "description": "",
                            "filename": "internal-nacl-plugin"
                        },
                        {
                            "description": "",
                            "filename": "pdf.dll"
                        },
                        {
                            "description": "Google Update",
                            "filename": "npGoogleUpdate3.dll"
                        },
                        {
                            "description": "NVIDIA 3D Vision plugin for Mozilla browsers",
                            "filename": "npnv3dv.dll"
                        },
                        {
                            "description": "NVIDIA 3D Vision Streaming plugin for Mozilla browsers",
                            "filename": "npnv3dvstreaming.dll"
                        },
                        {
                            "description": "VLC media player Web Plugin 2.1.3",
                            "filename": "npvlc.dll"
                        },
                        {
                            "description": "NPWLPG",
                            "filename": "NPWLPG.dll"
                        }
                    ],
                    "timezone": 300,
                    "colorDepth": 24,
                    "screenWidth": 1920,
                    "geo": {
                        "city": "Sterling Heights",
                        "region_code": "MI",
                        "region_name": "Michigan",
                        "ip": "67.149.100.221",
                        "time_zone": "America/Detroit",
                        "longitude": -83.031,
                        "metro_code": 505,
                        "latitude": 42.58,
                        "country_code": "US",
                        "country_name": "United States",
                        "zip_code": "48310"
                    },
                    "browser": "Mozilla/5.0 (Windows NT 6.3; WOW64) AppleWebKit/537.36 (KHTML, like Gecko) Chrome/40.0.2214.115 Safari/537.36"
                },
                "ethnicity": [
                    "white"
                ]
            }
        }
    },
    "AcceptTime": "2015-03-03T10:48:35Z",
    "HITId": "39TX062QX1XDAW3RDVV42F2R1TJX3X",
    "Assignment": "",
    "AssignmentStatus": "Approved",
    "SubmitTime": "2015-03-03T10:52:08Z"
}