{
    "ApprovalTime": "2015-03-03T11:02:36Z",
    "AutoApprovalTime": "2015-03-03T10:57:49Z",
    "AssignmentId": "3GNA64GUZFDY1YNCV2T6CO01VZEQ5H",
    "WorkerId": "A3FRJHRAIJ7981",
    "answers": {
        "data": {
            "trials": [],
            "condition": "pain",
            "allData": {
                "education": "college_bachDegree",
                "englishNative": "yes_only",
                "trialData": [
                    {
                        "rt": 10404,
                        "swatch": "BI2A00020",
                        "trialNum": 1,
                        "response": "probably no",
                        "responseCoded": -2
                    },
                    {
                        "rt": 5162,
                        "swatch": "BI2A00026",
                        "trialNum": 2,
                        "response": "probably yes",
                        "responseCoded": 2
                    },
                    {
                        "rt": 4592,
                        "swatch": "BI2A00016",
                        "trialNum": 3,
                        "response": "probably no",
                        "responseCoded": -2
                    },
                    {
                        "rt": 2286,
                        "swatch": "BI2A00044",
                        "trialNum": 4,
                        "response": "definitely no",
                        "responseCoded": 3
                    },
                    {
                        "rt": 4566,
                        "swatch": "BI2A00024",
                        "trialNum": 5,
                        "response": "probably yes",
                        "responseCoded": 2
                    },
                    {
                        "rt": 5050,
                        "swatch": "BI2A00014",
                        "trialNum": 6,
                        "response": "maybe yes",
                        "responseCoded": 1
                    },
                    {
                        "rt": 4283,
                        "swatch": "BI2A00027",
                        "trialNum": 7,
                        "response": "definitely no",
                        "responseCoded": 3
                    },
                    {
                        "rt": 1670,
                        "swatch": "BI2A00036",
                        "trialNum": 8,
                        "response": "definitely no",
                        "responseCoded": 3
                    },
                    {
                        "rt": 2368,
                        "swatch": "BI2A00033",
                        "trialNum": 9,
                        "response": "definitely no",
                        "responseCoded": 3
                    },
                    {
                        "rt": 3907,
                        "swatch": "BI2A00037",
                        "trialNum": 10,
                        "response": "definitely no",
                        "responseCoded": 3
                    },
                    {
                        "rt": 2042,
                        "swatch": "BI2A00009",
                        "trialNum": 11,
                        "response": "probably yes",
                        "responseCoded": 2
                    },
                    {
                        "rt": 2562,
                        "swatch": "BI2A00028",
                        "trialNum": 12,
                        "response": "maybe yes",
                        "responseCoded": 1
                    },
                    {
                        "rt": 2318,
                        "swatch": "BI2A00035",
                        "trialNum": 13,
                        "response": "definitely no",
                        "responseCoded": 3
                    },
                    {
                        "rt": 2598,
                        "swatch": "BI2A00048",
                        "trialNum": 14,
                        "response": "definitely no",
                        "responseCoded": 3
                    },
                    {
                        "rt": 1416,
                        "swatch": "BI2A00040",
                        "trialNum": 15,
                        "response": "definitely no",
                        "responseCoded": 3
                    },
                    {
                        "rt": 3880,
                        "swatch": "BI2A00011",
                        "trialNum": 16,
                        "response": "probably yes",
                        "responseCoded": 2
                    },
                    {
                        "rt": 2723,
                        "swatch": "BI2A00006",
                        "trialNum": 17,
                        "response": "definitely yes",
                        "responseCoded": 3
                    },
                    {
                        "rt": 4465,
                        "swatch": "BI2A00043",
                        "trialNum": 18,
                        "response": "maybe yes",
                        "responseCoded": 1
                    },
                    {
                        "rt": 5153,
                        "swatch": "BI2A00004",
                        "trialNum": 19,
                        "response": "probably yes",
                        "responseCoded": 2
                    },
                    {
                        "rt": 1847,
                        "swatch": "BI2A00045",
                        "trialNum": 20,
                        "response": "definitely no",
                        "responseCoded": 3
                    },
                    {
                        "rt": 2632,
                        "swatch": "BI2A00003",
                        "trialNum": 21,
                        "response": "probably yes",
                        "responseCoded": 2
                    },
                    {
                        "rt": 2122,
                        "swatch": "BI2A00005",
                        "trialNum": 22,
                        "response": "maybe yes",
                        "responseCoded": 1
                    },
                    {
                        "rt": 2426,
                        "swatch": "BI2A00025",
                        "trialNum": 23,
                        "response": "probably no",
                        "responseCoded": -2
                    },
                    {
                        "rt": 3149,
                        "swatch": "BI2A00001",
                        "trialNum": 24,
                        "response": "probably yes",
                        "responseCoded": 2
                    },
                    {
                        "rt": 6717,
                        "swatch": "BI2A00010",
                        "trialNum": 25,
                        "response": "definitely yes",
                        "responseCoded": 3
                    },
                    {
                        "rt": 2118,
                        "swatch": "BI2A00021",
                        "trialNum": 26,
                        "response": "probably no",
                        "responseCoded": -2
                    },
                    {
                        "rt": 2928,
                        "swatch": "BI2A00029",
                        "trialNum": 27,
                        "response": "definitely no",
                        "responseCoded": 3
                    },
                    {
                        "rt": 3933,
                        "swatch": "BI2A00032",
                        "trialNum": 28,
                        "response": "equally yes/no",
                        "responseCoded": 0
                    },
                    {
                        "rt": 5367,
                        "swatch": "BI2A00017",
                        "trialNum": 29,
                        "response": "maybe no",
                        "responseCoded": -1
                    },
                    {
                        "rt": 3320,
                        "swatch": "BI2A00023",
                        "trialNum": 30,
                        "response": "equally yes/no",
                        "responseCoded": 0
                    },
                    {
                        "rt": 3139,
                        "swatch": "BI2A00030",
                        "trialNum": 31,
                        "response": "probably no",
                        "responseCoded": -2
                    },
                    {
                        "rt": 4262,
                        "swatch": "BI2A00013",
                        "trialNum": 32,
                        "response": "maybe yes",
                        "responseCoded": 1
                    },
                    {
                        "rt": 3934,
                        "swatch": "BI2A00031",
                        "trialNum": 33,
                        "response": "definitely no",
                        "responseCoded": 3
                    },
                    {
                        "rt": 3886,
                        "swatch": "BI2A00042",
                        "trialNum": 34,
                        "response": "definitely no",
                        "responseCoded": 3
                    },
                    {
                        "rt": 4407,
                        "swatch": "BI2A00008",
                        "trialNum": 35,
                        "response": "probably yes",
                        "responseCoded": 2
                    },
                    {
                        "rt": 1959,
                        "swatch": "BI2A00022",
                        "trialNum": 36,
                        "response": "probably yes",
                        "responseCoded": 2
                    },
                    {
                        "rt": 1502,
                        "swatch": "BI2A00019",
                        "trialNum": 37,
                        "response": "probably yes",
                        "responseCoded": 2
                    },
                    {
                        "rt": 2561,
                        "swatch": "BI2A00038",
                        "trialNum": 38,
                        "response": "definitely no",
                        "responseCoded": 3
                    },
                    {
                        "rt": 1959,
                        "swatch": "BI2A00002",
                        "trialNum": 39,
                        "response": "definitely yes",
                        "responseCoded": 3
                    },
                    {
                        "rt": 6319,
                        "swatch": "BI2A00018",
                        "trialNum": 40,
                        "response": "maybe no",
                        "responseCoded": -1
                    },
                    {
                        "rt": 2423,
                        "swatch": "BI2A00047",
                        "trialNum": 41,
                        "response": "definitely no",
                        "responseCoded": 3
                    },
                    {
                        "rt": 1738,
                        "swatch": "BI2A00007",
                        "trialNum": 42,
                        "response": "probably yes",
                        "responseCoded": 2
                    },
                    {
                        "rt": 1866,
                        "swatch": "BI2A00046",
                        "trialNum": 43,
                        "response": "definitely no",
                        "responseCoded": 3
                    },
                    {
                        "rt": 2122,
                        "swatch": "BI2A00015",
                        "trialNum": 44,
                        "response": "probably yes",
                        "responseCoded": 2
                    },
                    {
                        "rt": 3786,
                        "swatch": "BI2A00039",
                        "trialNum": 45,
                        "response": "definitely no",
                        "responseCoded": 3
                    },
                    {
                        "rt": 4879,
                        "swatch": "BI2A00041",
                        "trialNum": 46,
                        "response": "definitely no",
                        "responseCoded": 3
                    },
                    {
                        "rt": 2756,
                        "swatch": "BI2A00012",
                        "trialNum": 47,
                        "response": "maybe yes",
                        "responseCoded": 1
                    },
                    {
                        "rt": 3564,
                        "swatch": "BI2A00034",
                        "trialNum": 48,
                        "response": "probably no",
                        "responseCoded": -2
                    }
                ],
                "gender": "female",
                "age": "28",
                "comments": "",
                "religion": [
                    "christianity_protestant"
                ],
                "condition": "pain",
                "fingerprintData": {
                    "ip": "80.114.138.112",
                    "screenHeight": 900,
                    "plugins": [
                        {
                            "description": "Adobe PDF Plug-In For Firefox and Netscape 11.0.10",
                            "filename": "nppdf32.dll"
                        },
                        {
                            "description": "Adobe PDF Plug-In For Firefox and Netscape 11.0.10",
                            "filename": "nppdf32.dll"
                        },
                        {
                            "description": "Intel AppUp Hyperlink Plugin",
                            "filename": "npAppUp.dll"
                        },
                        {
                            "description": "DivX Web Player version 3.2.0.788",
                            "filename": "npdivx32.dll"
                        },
                        {
                            "description": "DivX VOD Helper Plug-in",
                            "filename": "npovshelper.dll"
                        },
                        {
                            "description": "Google Update",
                            "filename": "npGoogleUpdate3.dll"
                        },
                        {
                            "description": "Hola VLC media player Web Plugin",
                            "filename": "npvlc.dll"
                        },
                        {
                            "description": "Inquisit Mozilla Plugin 3.0.6.0",
                            "filename": "npInquisit_3060.dll"
                        },
                        {
                            "description": "Intel web components updater - Installs and updates the Intel web components",
                            "filename": "npIntelWebAPIUpdater.dll"
                        },
                        {
                            "description": "Intel web components for Intel\ufffd Identity Protection Technology",
                            "filename": "npIntelWebAPIIPT.dll"
                        },
                        {
                            "description": "NPRuntime Script Plug-in Library for Java(TM) Deploy",
                            "filename": "npdeployJava1.dll"
                        },
                        {
                            "description": "Next Generation Java Plug-in 11.31.2 for Mozilla browsers",
                            "filename": "npjp2.dll"
                        },
                        {
                            "description": "The plugin allows you to have a better experience with Microsoft SharePoint",
                            "filename": "NPSPWRAP.DLL"
                        },
                        {
                            "description": "The plugin allows you to have a better experience with Microsoft Lync",
                            "filename": "npMeetingJoinPluginOC.dll"
                        },
                        {
                            "description": "Nitro PDF plugin for Firefox and Chrome",
                            "filename": "npnitromozilla.dll"
                        },
                        {
                            "description": "The QuickTime Plugin allows you to view a wide variety of multimedia content in Web pages. For more information, visit the <A HREF=http://www.apple.com/quicktime/>QuickTime</A> Web site.",
                            "filename": "npqtplugin2.dll"
                        },
                        {
                            "description": "The QuickTime Plugin allows you to view a wide variety of multimedia content in Web pages. For more information, visit the <A HREF=http://www.apple.com/quicktime/>QuickTime</A> Web site.",
                            "filename": "npqtplugin.dll"
                        },
                        {
                            "description": "The QuickTime Plugin allows you to view a wide variety of multimedia content in Web pages. For more information, visit the <A HREF=http://www.apple.com/quicktime/>QuickTime</A> Web site.",
                            "filename": "npqtplugin5.dll"
                        },
                        {
                            "description": "The QuickTime Plugin allows you to view a wide variety of multimedia content in Web pages. For more information, visit the <A HREF=http://www.apple.com/quicktime/>QuickTime</A> Web site.",
                            "filename": "npqtplugin3.dll"
                        },
                        {
                            "description": "The QuickTime Plugin allows you to view a wide variety of multimedia content in Web pages. For more information, visit the <A HREF=http://www.apple.com/quicktime/>QuickTime</A> Web site.",
                            "filename": "npqtplugin4.dll"
                        },
                        {
                            "description": "Shockwave Flash 16.0 r0",
                            "filename": "NPSWF32_16_0_0_305.dll"
                        },
                        {
                            "description": "5.1.30514.0",
                            "filename": "npctrl.dll"
                        },
                        {
                            "description": "VLC media player Web Plugin 2.1.3",
                            "filename": "npvlc.dll"
                        },
                        {
                            "description": "iTunes Detector Plug-in",
                            "filename": "npitunes.dll"
                        }
                    ],
                    "timezone": -60,
                    "colorDepth": 24,
                    "screenWidth": 1600,
                    "geo": {
                        "city": "",
                        "region_code": "",
                        "region_name": "",
                        "ip": "80.114.138.112",
                        "time_zone": "Europe/Amsterdam",
                        "longitude": 4.9,
                        "metro_code": 0,
                        "latitude": 52.367,
                        "country_code": "NL",
                        "country_name": "Netherlands",
                        "zip_code": ""
                    },
                    "browser": "Mozilla/5.0 (Windows NT 6.3; WOW64; rv:35.0) Gecko/20100101 Firefox/35.0"
                },
                "ethnicity": [
                    "white"
                ]
            }
        }
    },
    "AcceptTime": "2015-03-03T10:48:42Z",
    "HITId": "39TX062QX1XDAW3RDVV42F2R1TJX3X",
    "Assignment": "",
    "AssignmentStatus": "Approved",
    "SubmitTime": "2015-03-03T10:52:49Z"
}