{
    "ApprovalTime": "2015-03-03T10:57:36Z",
    "AutoApprovalTime": "2015-03-03T10:54:24Z",
    "AssignmentId": "3H8DHMCCWAK7U84AX3RSEECK9BLDKN",
    "WorkerId": "A1A3TGZ7DKJWRW",
    "answers": {
        "data": {
            "trials": [],
            "condition": "happy",
            "allData": {
                "education": "college_bachDegree",
                "englishNative": "yes_only",
                "trialData": [
                    {
                        "rt": 3213,
                        "swatch": "BI2A00022",
                        "trialNum": 1,
                        "response": "probably no",
                        "responseCoded": -2
                    },
                    {
                        "rt": 1345,
                        "swatch": "BI2A00034",
                        "trialNum": 2,
                        "response": "probably no",
                        "responseCoded": -2
                    },
                    {
                        "rt": 1549,
                        "swatch": "BI2A00001",
                        "trialNum": 3,
                        "response": "maybe no",
                        "responseCoded": -1
                    },
                    {
                        "rt": 1343,
                        "swatch": "BI2A00026",
                        "trialNum": 4,
                        "response": "equally yes/no",
                        "responseCoded": 0
                    },
                    {
                        "rt": 1280,
                        "swatch": "BI2A00029",
                        "trialNum": 5,
                        "response": "maybe yes",
                        "responseCoded": 1
                    },
                    {
                        "rt": 2640,
                        "swatch": "BI2A00028",
                        "trialNum": 6,
                        "response": "equally yes/no",
                        "responseCoded": 0
                    },
                    {
                        "rt": 1263,
                        "swatch": "BI2A00045",
                        "trialNum": 7,
                        "response": "probably yes",
                        "responseCoded": 2
                    },
                    {
                        "rt": 967,
                        "swatch": "BI2A00002",
                        "trialNum": 8,
                        "response": "probably yes",
                        "responseCoded": 2
                    },
                    {
                        "rt": 806,
                        "swatch": "BI2A00006",
                        "trialNum": 9,
                        "response": "probably yes",
                        "responseCoded": 2
                    },
                    {
                        "rt": 2141,
                        "swatch": "BI2A00005",
                        "trialNum": 10,
                        "response": "probably yes",
                        "responseCoded": 2
                    },
                    {
                        "rt": 1509,
                        "swatch": "BI2A00036",
                        "trialNum": 11,
                        "response": "equally yes/no",
                        "responseCoded": 0
                    },
                    {
                        "rt": 1342,
                        "swatch": "BI2A00009",
                        "trialNum": 12,
                        "response": "probably yes",
                        "responseCoded": 2
                    },
                    {
                        "rt": 1113,
                        "swatch": "BI2A00047",
                        "trialNum": 13,
                        "response": "equally yes/no",
                        "responseCoded": 0
                    },
                    {
                        "rt": 990,
                        "swatch": "BI2A00033",
                        "trialNum": 14,
                        "response": "equally yes/no",
                        "responseCoded": 0
                    },
                    {
                        "rt": 760,
                        "swatch": "BI2A00017",
                        "trialNum": 15,
                        "response": "equally yes/no",
                        "responseCoded": 0
                    },
                    {
                        "rt": 1033,
                        "swatch": "BI2A00046",
                        "trialNum": 16,
                        "response": "maybe yes",
                        "responseCoded": 1
                    },
                    {
                        "rt": 1167,
                        "swatch": "BI2A00004",
                        "trialNum": 17,
                        "response": "maybe yes",
                        "responseCoded": 1
                    },
                    {
                        "rt": 743,
                        "swatch": "BI2A00027",
                        "trialNum": 18,
                        "response": "equally yes/no",
                        "responseCoded": 0
                    },
                    {
                        "rt": 1993,
                        "swatch": "BI2A00041",
                        "trialNum": 19,
                        "response": "probably no",
                        "responseCoded": -2
                    },
                    {
                        "rt": 1207,
                        "swatch": "BI2A00003",
                        "trialNum": 20,
                        "response": "probably yes",
                        "responseCoded": 2
                    },
                    {
                        "rt": 1127,
                        "swatch": "BI2A00010",
                        "trialNum": 21,
                        "response": "equally yes/no",
                        "responseCoded": 0
                    },
                    {
                        "rt": 1265,
                        "swatch": "BI2A00013",
                        "trialNum": 22,
                        "response": "equally yes/no",
                        "responseCoded": 0
                    },
                    {
                        "rt": 2125,
                        "swatch": "BI2A00015",
                        "trialNum": 23,
                        "response": "equally yes/no",
                        "responseCoded": 0
                    },
                    {
                        "rt": 1120,
                        "swatch": "BI2A00012",
                        "trialNum": 24,
                        "response": "maybe no",
                        "responseCoded": -1
                    },
                    {
                        "rt": 1283,
                        "swatch": "BI2A00019",
                        "trialNum": 25,
                        "response": "equally yes/no",
                        "responseCoded": 0
                    },
                    {
                        "rt": 1470,
                        "swatch": "BI2A00043",
                        "trialNum": 26,
                        "response": "probably no",
                        "responseCoded": -2
                    },
                    {
                        "rt": 1600,
                        "swatch": "BI2A00025",
                        "trialNum": 27,
                        "response": "probably no",
                        "responseCoded": -2
                    },
                    {
                        "rt": 900,
                        "swatch": "BI2A00018",
                        "trialNum": 28,
                        "response": "probably no",
                        "responseCoded": -2
                    },
                    {
                        "rt": 923,
                        "swatch": "BI2A00021",
                        "trialNum": 29,
                        "response": "probably no",
                        "responseCoded": -2
                    },
                    {
                        "rt": 914,
                        "swatch": "BI2A00040",
                        "trialNum": 30,
                        "response": "probably no",
                        "responseCoded": -2
                    },
                    {
                        "rt": 1689,
                        "swatch": "BI2A00035",
                        "trialNum": 31,
                        "response": "equally yes/no",
                        "responseCoded": 0
                    },
                    {
                        "rt": 1260,
                        "swatch": "BI2A00037",
                        "trialNum": 32,
                        "response": "probably no",
                        "responseCoded": -2
                    },
                    {
                        "rt": 793,
                        "swatch": "BI2A00016",
                        "trialNum": 33,
                        "response": "probably no",
                        "responseCoded": -2
                    },
                    {
                        "rt": 974,
                        "swatch": "BI2A00048",
                        "trialNum": 34,
                        "response": "probably no",
                        "responseCoded": -2
                    },
                    {
                        "rt": 637,
                        "swatch": "BI2A00039",
                        "trialNum": 35,
                        "response": "probably no",
                        "responseCoded": -2
                    },
                    {
                        "rt": 875,
                        "swatch": "BI2A00023",
                        "trialNum": 36,
                        "response": "probably no",
                        "responseCoded": -2
                    },
                    {
                        "rt": 773,
                        "swatch": "BI2A00011",
                        "trialNum": 37,
                        "response": "probably no",
                        "responseCoded": -2
                    },
                    {
                        "rt": 1097,
                        "swatch": "BI2A00014",
                        "trialNum": 38,
                        "response": "probably no",
                        "responseCoded": -2
                    },
                    {
                        "rt": 1323,
                        "swatch": "BI2A00038",
                        "trialNum": 39,
                        "response": "maybe yes",
                        "responseCoded": 1
                    },
                    {
                        "rt": 800,
                        "swatch": "BI2A00030",
                        "trialNum": 40,
                        "response": "equally yes/no",
                        "responseCoded": 0
                    },
                    {
                        "rt": 880,
                        "swatch": "BI2A00008",
                        "trialNum": 41,
                        "response": "maybe yes",
                        "responseCoded": 1
                    },
                    {
                        "rt": 1810,
                        "swatch": "BI2A00024",
                        "trialNum": 42,
                        "response": "equally yes/no",
                        "responseCoded": 0
                    },
                    {
                        "rt": 1630,
                        "swatch": "BI2A00032",
                        "trialNum": 43,
                        "response": "probably no",
                        "responseCoded": -2
                    },
                    {
                        "rt": 1240,
                        "swatch": "BI2A00042",
                        "trialNum": 44,
                        "response": "probably no",
                        "responseCoded": -2
                    },
                    {
                        "rt": 758,
                        "swatch": "BI2A00020",
                        "trialNum": 45,
                        "response": "probably no",
                        "responseCoded": -2
                    },
                    {
                        "rt": 916,
                        "swatch": "BI2A00007",
                        "trialNum": 46,
                        "response": "probably no",
                        "responseCoded": -2
                    },
                    {
                        "rt": 2140,
                        "swatch": "BI2A00044",
                        "trialNum": 47,
                        "response": "equally yes/no",
                        "responseCoded": 0
                    },
                    {
                        "rt": 1840,
                        "swatch": "BI2A00031",
                        "trialNum": 48,
                        "response": "probably no",
                        "responseCoded": -2
                    }
                ],
                "gender": "male",
                "age": "25",
                "comments": "",
                "religion": [
                    "none"
                ],
                "condition": "happy",
                "fingerprintData": {
                    "ip": "96.229.171.32",
                    "screenHeight": 768,
                    "plugins": [
                        {
                            "description": "Enables Widevine licenses for playback of HTML audio/video content. (version: 1.4.6.758)",
                            "filename": "widevinecdmadapter.dll"
                        },
                        {
                            "description": "Shockwave Flash 16.0 r0",
                            "filename": "pepflashplayer.dll"
                        },
                        {
                            "description": "This plugin allows you to securely access other computers that have been shared with you. To use this plugin you must first install the <a href=\"https://chrome.google.com/remotedesktop\">Chrome Remote Desktop</a> webapp.",
                            "filename": "internal-remoting-viewer"
                        },
                        {
                            "description": "",
                            "filename": "internal-nacl-plugin"
                        },
                        {
                            "description": "",
                            "filename": "pdf.dll"
                        },
                        {
                            "description": "np-mswmp",
                            "filename": "np-mswmp.dll"
                        },
                        {
                            "description": "Office Plugin for Netscape Navigator",
                            "filename": "NPOFF12.DLL"
                        },
                        {
                            "description": "The QuickTime Plugin allows you to view a wide variety of multimedia content in Web pages. For more information, visit the <A HREF=http://www.apple.com/quicktime/>QuickTime</A> Web site.",
                            "filename": "npqtplugin.dll"
                        },
                        {
                            "description": "The QuickTime Plugin allows you to view a wide variety of multimedia content in Web pages. For more information, visit the <A HREF=http://www.apple.com/quicktime/>QuickTime</A> Web site.",
                            "filename": "npqtplugin2.dll"
                        },
                        {
                            "description": "The QuickTime Plugin allows you to view a wide variety of multimedia content in Web pages. For more information, visit the <A HREF=http://www.apple.com/quicktime/>QuickTime</A> Web site.",
                            "filename": "npqtplugin3.dll"
                        },
                        {
                            "description": "The QuickTime Plugin allows you to view a wide variety of multimedia content in Web pages. For more information, visit the <A HREF=http://www.apple.com/quicktime/>QuickTime</A> Web site.",
                            "filename": "npqtplugin4.dll"
                        },
                        {
                            "description": "The QuickTime Plugin allows you to view a wide variety of multimedia content in Web pages. For more information, visit the <A HREF=http://www.apple.com/quicktime/>QuickTime</A> Web site.",
                            "filename": "npqtplugin5.dll"
                        },
                        {
                            "description": "Octoshape embedded video plugin",
                            "filename": "npoctoshape.dll"
                        },
                        {
                            "description": "Google Update",
                            "filename": "npGoogleUpdate3.dll"
                        },
                        {
                            "description": "Next Generation Java Plug-in 11.31.2 for Mozilla browsers",
                            "filename": "npjp2.dll"
                        },
                        {
                            "description": "Inquisit Mozilla Plugin 3.0.6.0",
                            "filename": "npInquisit_3060.dll"
                        },
                        {
                            "description": "VLC media player Web Plugin 2.1.3",
                            "filename": "npvlc.dll"
                        },
                        {
                            "description": "iTunes Detector Plug-in",
                            "filename": "npitunes.dll"
                        },
                        {
                            "description": "Unity Player 4.6.1f1",
                            "filename": "npUnity3D32.dll"
                        },
                        {
                            "description": "Inquisit Mozilla Plugin 4.0.8.0",
                            "filename": "npInquisit.dll"
                        },
                        {
                            "description": "Octoshape embedded video plugin",
                            "filename": "sua-1101262-0-npoctoshape.dll"
                        },
                        {
                            "description": "Shockwave Flash 16.0 r0",
                            "filename": "NPSWF32_16_0_0_305.dll"
                        },
                        {
                            "description": "NPRuntime Script Plug-in Library for Java(TM) Deploy",
                            "filename": "npdeployJava1.dll"
                        },
                        {
                            "description": "5.1.30514.0",
                            "filename": "npctrl.dll"
                        }
                    ],
                    "timezone": 480,
                    "colorDepth": 24,
                    "screenWidth": 1366,
                    "geo": {
                        "city": "La Puente",
                        "region_code": "CA",
                        "region_name": "California",
                        "ip": "96.229.171.32",
                        "time_zone": "America/Los_Angeles",
                        "longitude": -117.95,
                        "metro_code": 803,
                        "latitude": 34.02,
                        "country_code": "US",
                        "country_name": "United States",
                        "zip_code": "91744"
                    },
                    "browser": "Mozilla/5.0 (Windows NT 6.1; WOW64) AppleWebKit/537.36 (KHTML, like Gecko) Chrome/40.0.2214.115 Safari/537.36"
                },
                "ethnicity": [
                    "asian_eastAsian"
                ]
            }
        }
    },
    "AcceptTime": "2015-03-03T10:45:46Z",
    "HITId": "39TX062QX1XDAW3RDVV42F2R1TJX3X",
    "Assignment": "",
    "AssignmentStatus": "Approved",
    "SubmitTime": "2015-03-03T10:49:24Z"
}