{
    "ApprovalTime": "2015-03-03T11:42:37Z",
    "AutoApprovalTime": "2015-03-03T11:40:51Z",
    "AssignmentId": "3HRMW88U17Z8LC3J63GDEKK54R7M08",
    "WorkerId": "A258IQXX7F3Z8O",
    "answers": {
        "data": {
            "trials": [],
            "condition": "sense",
            "allData": {
                "education": "grad_degree",
                "englishNative": "yes_only",
                "trialData": [
                    {
                        "rt": 97542,
                        "swatch": "BI2A00046",
                        "trialNum": 1,
                        "response": "probably no",
                        "responseCoded": -2
                    },
                    {
                        "rt": 4096,
                        "swatch": "BI2A00012",
                        "trialNum": 2,
                        "response": "probably no",
                        "responseCoded": -2
                    },
                    {
                        "rt": 2074,
                        "swatch": "BI2A00035",
                        "trialNum": 3,
                        "response": "probably no",
                        "responseCoded": -2
                    },
                    {
                        "rt": 2073,
                        "swatch": "BI2A00008",
                        "trialNum": 4,
                        "response": "probably yes",
                        "responseCoded": 2
                    },
                    {
                        "rt": 3389,
                        "swatch": "BI2A00044",
                        "trialNum": 5,
                        "response": "definitely yes",
                        "responseCoded": 3
                    },
                    {
                        "rt": 2743,
                        "swatch": "BI2A00021",
                        "trialNum": 6,
                        "response": "maybe no",
                        "responseCoded": -1
                    },
                    {
                        "rt": 1531,
                        "swatch": "BI2A00003",
                        "trialNum": 7,
                        "response": "definitely yes",
                        "responseCoded": 3
                    },
                    {
                        "rt": 1913,
                        "swatch": "BI2A00031",
                        "trialNum": 8,
                        "response": "probably no",
                        "responseCoded": -2
                    },
                    {
                        "rt": 2078,
                        "swatch": "BI2A00027",
                        "trialNum": 9,
                        "response": "maybe no",
                        "responseCoded": -1
                    },
                    {
                        "rt": 1471,
                        "swatch": "BI2A00040",
                        "trialNum": 10,
                        "response": "probably no",
                        "responseCoded": -2
                    },
                    {
                        "rt": 1318,
                        "swatch": "BI2A00043",
                        "trialNum": 11,
                        "response": "probably no",
                        "responseCoded": -2
                    },
                    {
                        "rt": 1507,
                        "swatch": "BI2A00015",
                        "trialNum": 12,
                        "response": "probably yes",
                        "responseCoded": 2
                    },
                    {
                        "rt": 1441,
                        "swatch": "BI2A00047",
                        "trialNum": 13,
                        "response": "maybe no",
                        "responseCoded": -1
                    },
                    {
                        "rt": 2440,
                        "swatch": "BI2A00018",
                        "trialNum": 14,
                        "response": "maybe yes",
                        "responseCoded": 1
                    },
                    {
                        "rt": 1643,
                        "swatch": "BI2A00006",
                        "trialNum": 15,
                        "response": "definitely yes",
                        "responseCoded": 3
                    },
                    {
                        "rt": 1975,
                        "swatch": "BI2A00028",
                        "trialNum": 16,
                        "response": "probably yes",
                        "responseCoded": 2
                    },
                    {
                        "rt": 2437,
                        "swatch": "BI2A00022",
                        "trialNum": 17,
                        "response": "probably yes",
                        "responseCoded": 2
                    },
                    {
                        "rt": 3215,
                        "swatch": "BI2A00037",
                        "trialNum": 18,
                        "response": "maybe yes",
                        "responseCoded": 1
                    },
                    {
                        "rt": 1919,
                        "swatch": "BI2A00011",
                        "trialNum": 19,
                        "response": "definitely yes",
                        "responseCoded": 3
                    },
                    {
                        "rt": 2485,
                        "swatch": "BI2A00036",
                        "trialNum": 20,
                        "response": "probably no",
                        "responseCoded": -2
                    },
                    {
                        "rt": 1581,
                        "swatch": "BI2A00025",
                        "trialNum": 21,
                        "response": "probably no",
                        "responseCoded": -2
                    },
                    {
                        "rt": 3393,
                        "swatch": "BI2A00010",
                        "trialNum": 22,
                        "response": "maybe yes",
                        "responseCoded": 1
                    },
                    {
                        "rt": 1191,
                        "swatch": "BI2A00032",
                        "trialNum": 23,
                        "response": "maybe yes",
                        "responseCoded": 1
                    },
                    {
                        "rt": 1966,
                        "swatch": "BI2A00017",
                        "trialNum": 24,
                        "response": "maybe no",
                        "responseCoded": -1
                    },
                    {
                        "rt": 1541,
                        "swatch": "BI2A00009",
                        "trialNum": 25,
                        "response": "definitely yes",
                        "responseCoded": 3
                    },
                    {
                        "rt": 774,
                        "swatch": "BI2A00019",
                        "trialNum": 26,
                        "response": "definitely yes",
                        "responseCoded": 3
                    },
                    {
                        "rt": 1024,
                        "swatch": "BI2A00024",
                        "trialNum": 27,
                        "response": "definitely yes",
                        "responseCoded": 3
                    },
                    {
                        "rt": 911,
                        "swatch": "BI2A00007",
                        "trialNum": 28,
                        "response": "definitely yes",
                        "responseCoded": 3
                    },
                    {
                        "rt": 1024,
                        "swatch": "BI2A00004",
                        "trialNum": 29,
                        "response": "definitely yes",
                        "responseCoded": 3
                    },
                    {
                        "rt": 1574,
                        "swatch": "BI2A00014",
                        "trialNum": 30,
                        "response": "probably yes",
                        "responseCoded": 2
                    },
                    {
                        "rt": 1765,
                        "swatch": "BI2A00030",
                        "trialNum": 31,
                        "response": "probably no",
                        "responseCoded": -2
                    },
                    {
                        "rt": 1633,
                        "swatch": "BI2A00034",
                        "trialNum": 32,
                        "response": "definitely no",
                        "responseCoded": 3
                    },
                    {
                        "rt": 1366,
                        "swatch": "BI2A00029",
                        "trialNum": 33,
                        "response": "definitely no",
                        "responseCoded": 3
                    },
                    {
                        "rt": 1502,
                        "swatch": "BI2A00038",
                        "trialNum": 34,
                        "response": "definitely no",
                        "responseCoded": 3
                    },
                    {
                        "rt": 2062,
                        "swatch": "BI2A00001",
                        "trialNum": 35,
                        "response": "probably yes",
                        "responseCoded": 2
                    },
                    {
                        "rt": 2182,
                        "swatch": "BI2A00016",
                        "trialNum": 36,
                        "response": "probably yes",
                        "responseCoded": 2
                    },
                    {
                        "rt": 1319,
                        "swatch": "BI2A00048",
                        "trialNum": 37,
                        "response": "probably yes",
                        "responseCoded": 2
                    },
                    {
                        "rt": 861,
                        "swatch": "BI2A00020",
                        "trialNum": 38,
                        "response": "probably yes",
                        "responseCoded": 2
                    },
                    {
                        "rt": 3490,
                        "swatch": "BI2A00041",
                        "trialNum": 39,
                        "response": "probably no",
                        "responseCoded": -2
                    },
                    {
                        "rt": 1570,
                        "swatch": "BI2A00005",
                        "trialNum": 40,
                        "response": "probably yes",
                        "responseCoded": 2
                    },
                    {
                        "rt": 914,
                        "swatch": "BI2A00042",
                        "trialNum": 41,
                        "response": "probably yes",
                        "responseCoded": 2
                    },
                    {
                        "rt": 847,
                        "swatch": "BI2A00026",
                        "trialNum": 42,
                        "response": "probably yes",
                        "responseCoded": 2
                    },
                    {
                        "rt": 1286,
                        "swatch": "BI2A00023",
                        "trialNum": 43,
                        "response": "probably yes",
                        "responseCoded": 2
                    },
                    {
                        "rt": 1718,
                        "swatch": "BI2A00033",
                        "trialNum": 44,
                        "response": "probably no",
                        "responseCoded": -2
                    },
                    {
                        "rt": 1418,
                        "swatch": "BI2A00002",
                        "trialNum": 45,
                        "response": "definitely yes",
                        "responseCoded": 3
                    },
                    {
                        "rt": 776,
                        "swatch": "BI2A00045",
                        "trialNum": 46,
                        "response": "definitely yes",
                        "responseCoded": 3
                    },
                    {
                        "rt": 809,
                        "swatch": "BI2A00013",
                        "trialNum": 47,
                        "response": "definitely yes",
                        "responseCoded": 3
                    },
                    {
                        "rt": 1570,
                        "swatch": "BI2A00039",
                        "trialNum": 48,
                        "response": "definitely no",
                        "responseCoded": 3
                    }
                ],
                "gender": "female",
                "age": "26",
                "comments": "It took me a long time to start the survey, but once the pictures loaded the survey went very fast",
                "religion": [
                    "christianity_catholic"
                ],
                "condition": "sense",
                "fingerprintData": {
                    "ip": "101.229.131.104",
                    "screenHeight": 768,
                    "plugins": [
                        {
                            "description": "Adobe PDF Plug-In For Firefox and Netscape 11.0.03",
                            "filename": "nppdf32.dll"
                        },
                        {
                            "description": "Adobe PDF Plug-In For Firefox and Netscape 11.0.03",
                            "filename": "nppdf32.dll"
                        },
                        {
                            "description": "Google Update",
                            "filename": "npGoogleUpdate3.dll"
                        },
                        {
                            "description": "Inquisit Mozilla Plugin 4.0.7.0",
                            "filename": "npInquisit.dll"
                        },
                        {
                            "description": "NPRuntime Script Plug-in Library for Java(TM) Deploy",
                            "filename": "npdeployJava1.dll"
                        },
                        {
                            "description": "Next Generation Java Plug-in 11.25.2 for Mozilla browsers",
                            "filename": "npjp2.dll"
                        },
                        {
                            "description": "McAfee MSC FF plugin DLL",
                            "filename": "npMcSnFFPl.dll"
                        },
                        {
                            "description": "The plugin allows you to have a better experience with Microsoft SharePoint",
                            "filename": "NPSPWRAP.DLL"
                        },
                        {
                            "description": "Shockwave Flash 16.0 r0",
                            "filename": "NPSWF32_16_0_0_305.dll"
                        },
                        {
                            "description": "5.1.30514.0",
                            "filename": "npctrl.dll"
                        },
                        {
                            "description": "WildTangent Games App V2 Presence Detector",
                            "filename": "NP_wtapp.dll"
                        },
                        {
                            "description": "iTunes Detector Plug-in",
                            "filename": "npitunes.dll"
                        }
                    ],
                    "timezone": 300,
                    "colorDepth": 24,
                    "screenWidth": 1366,
                    "geo": {
                        "city": "Shanghai",
                        "region_code": "31",
                        "region_name": "Shanghai Shi",
                        "ip": "101.229.131.104",
                        "time_zone": "Asia/Shanghai",
                        "longitude": 121.4,
                        "metro_code": 0,
                        "latitude": 31.046,
                        "country_code": "CN",
                        "country_name": "China",
                        "zip_code": ""
                    },
                    "browser": "Mozilla/5.0 (Windows NT 6.3; WOW64; rv:35.0) Gecko/20100101 Firefox/35.0"
                },
                "ethnicity": [
                    "white"
                ]
            }
        }
    },
    "AcceptTime": "2015-03-03T11:04:29Z",
    "HITId": "39TX062QX1XDAW3RDVV42F2R1TJX3X",
    "Assignment": "",
    "AssignmentStatus": "Approved",
    "SubmitTime": "2015-03-03T11:35:51Z"
}