{
    "ApprovalTime": "2015-03-03T11:07:36Z",
    "AutoApprovalTime": "2015-03-03T11:02:55Z",
    "AssignmentId": "3KYQYYSHYWGQKZPPVVJLLVTTTGVDO7",
    "WorkerId": "A1G69P73SBVUR4",
    "answers": {
        "data": {
            "trials": [],
            "condition": "happy",
            "allData": {
                "education": "grad_degree",
                "englishNative": "yes_only",
                "trialData": [
                    {
                        "rt": 9949,
                        "swatch": "BI2A00006",
                        "trialNum": 1,
                        "response": "probably yes",
                        "responseCoded": 2
                    },
                    {
                        "rt": 6803,
                        "swatch": "BI2A00042",
                        "trialNum": 2,
                        "response": "definitely no",
                        "responseCoded": 3
                    },
                    {
                        "rt": 3578,
                        "swatch": "BI2A00040",
                        "trialNum": 3,
                        "response": "definitely no",
                        "responseCoded": 3
                    },
                    {
                        "rt": 4485,
                        "swatch": "BI2A00028",
                        "trialNum": 4,
                        "response": "probably yes",
                        "responseCoded": 2
                    },
                    {
                        "rt": 4574,
                        "swatch": "BI2A00025",
                        "trialNum": 5,
                        "response": "definitely no",
                        "responseCoded": 3
                    },
                    {
                        "rt": 3638,
                        "swatch": "BI2A00011",
                        "trialNum": 6,
                        "response": "probably yes",
                        "responseCoded": 2
                    },
                    {
                        "rt": 9959,
                        "swatch": "BI2A00047",
                        "trialNum": 7,
                        "response": "probably no",
                        "responseCoded": -2
                    },
                    {
                        "rt": 3822,
                        "swatch": "BI2A00030",
                        "trialNum": 8,
                        "response": "definitely no",
                        "responseCoded": 3
                    },
                    {
                        "rt": 2558,
                        "swatch": "BI2A00018",
                        "trialNum": 9,
                        "response": "maybe yes",
                        "responseCoded": 1
                    },
                    {
                        "rt": 4166,
                        "swatch": "BI2A00043",
                        "trialNum": 10,
                        "response": "maybe no",
                        "responseCoded": -1
                    },
                    {
                        "rt": 1758,
                        "swatch": "BI2A00003",
                        "trialNum": 11,
                        "response": "probably yes",
                        "responseCoded": 2
                    },
                    {
                        "rt": 3517,
                        "swatch": "BI2A00032",
                        "trialNum": 12,
                        "response": "maybe no",
                        "responseCoded": -1
                    },
                    {
                        "rt": 2694,
                        "swatch": "BI2A00017",
                        "trialNum": 13,
                        "response": "probably no",
                        "responseCoded": -2
                    },
                    {
                        "rt": 2559,
                        "swatch": "BI2A00038",
                        "trialNum": 14,
                        "response": "definitely no",
                        "responseCoded": 3
                    },
                    {
                        "rt": 1825,
                        "swatch": "BI2A00035",
                        "trialNum": 15,
                        "response": "definitely no",
                        "responseCoded": 3
                    },
                    {
                        "rt": 20550,
                        "swatch": "BI2A00031",
                        "trialNum": 16,
                        "response": "definitely no",
                        "responseCoded": 3
                    },
                    {
                        "rt": 2127,
                        "swatch": "BI2A00002",
                        "trialNum": 17,
                        "response": "probably yes",
                        "responseCoded": 2
                    },
                    {
                        "rt": 2038,
                        "swatch": "BI2A00004",
                        "trialNum": 18,
                        "response": "probably yes",
                        "responseCoded": 2
                    },
                    {
                        "rt": 4031,
                        "swatch": "BI2A00020",
                        "trialNum": 19,
                        "response": "maybe no",
                        "responseCoded": -1
                    },
                    {
                        "rt": 3254,
                        "swatch": "BI2A00016",
                        "trialNum": 20,
                        "response": "definitely no",
                        "responseCoded": 3
                    },
                    {
                        "rt": 2277,
                        "swatch": "BI2A00048",
                        "trialNum": 21,
                        "response": "definitely no",
                        "responseCoded": 3
                    },
                    {
                        "rt": 2234,
                        "swatch": "BI2A00041",
                        "trialNum": 22,
                        "response": "definitely no",
                        "responseCoded": 3
                    },
                    {
                        "rt": 10484,
                        "swatch": "BI2A00039",
                        "trialNum": 23,
                        "response": "definitely no",
                        "responseCoded": 3
                    },
                    {
                        "rt": 1315,
                        "swatch": "BI2A00036",
                        "trialNum": 24,
                        "response": "definitely no",
                        "responseCoded": 3
                    },
                    {
                        "rt": 2239,
                        "swatch": "BI2A00014",
                        "trialNum": 25,
                        "response": "maybe yes",
                        "responseCoded": 1
                    },
                    {
                        "rt": 1494,
                        "swatch": "BI2A00026",
                        "trialNum": 26,
                        "response": "maybe yes",
                        "responseCoded": 1
                    },
                    {
                        "rt": 4110,
                        "swatch": "BI2A00027",
                        "trialNum": 27,
                        "response": "maybe no",
                        "responseCoded": -1
                    },
                    {
                        "rt": 1765,
                        "swatch": "BI2A00013",
                        "trialNum": 28,
                        "response": "probably yes",
                        "responseCoded": 2
                    },
                    {
                        "rt": 1630,
                        "swatch": "BI2A00009",
                        "trialNum": 29,
                        "response": "probably yes",
                        "responseCoded": 2
                    },
                    {
                        "rt": 2983,
                        "swatch": "BI2A00012",
                        "trialNum": 30,
                        "response": "probably yes",
                        "responseCoded": 2
                    },
                    {
                        "rt": 35855,
                        "swatch": "BI2A00034",
                        "trialNum": 31,
                        "response": "probably no",
                        "responseCoded": -2
                    },
                    {
                        "rt": 2360,
                        "swatch": "BI2A00024",
                        "trialNum": 32,
                        "response": "probably yes",
                        "responseCoded": 2
                    },
                    {
                        "rt": 1940,
                        "swatch": "BI2A00015",
                        "trialNum": 33,
                        "response": "probably yes",
                        "responseCoded": 2
                    },
                    {
                        "rt": 1764,
                        "swatch": "BI2A00007",
                        "trialNum": 34,
                        "response": "probably yes",
                        "responseCoded": 2
                    },
                    {
                        "rt": 4185,
                        "swatch": "BI2A00008",
                        "trialNum": 35,
                        "response": "maybe yes",
                        "responseCoded": 1
                    },
                    {
                        "rt": 1991,
                        "swatch": "BI2A00021",
                        "trialNum": 36,
                        "response": "probably no",
                        "responseCoded": -2
                    },
                    {
                        "rt": 1860,
                        "swatch": "BI2A00029",
                        "trialNum": 37,
                        "response": "probably no",
                        "responseCoded": -2
                    },
                    {
                        "rt": 2179,
                        "swatch": "BI2A00001",
                        "trialNum": 38,
                        "response": "probably yes",
                        "responseCoded": 2
                    },
                    {
                        "rt": 1807,
                        "swatch": "BI2A00045",
                        "trialNum": 39,
                        "response": "definitely no",
                        "responseCoded": 3
                    },
                    {
                        "rt": 2702,
                        "swatch": "BI2A00019",
                        "trialNum": 40,
                        "response": "probably yes",
                        "responseCoded": 2
                    },
                    {
                        "rt": 3871,
                        "swatch": "BI2A00022",
                        "trialNum": 41,
                        "response": "probably yes",
                        "responseCoded": 2
                    },
                    {
                        "rt": 2011,
                        "swatch": "BI2A00046",
                        "trialNum": 42,
                        "response": "definitely no",
                        "responseCoded": 3
                    },
                    {
                        "rt": 5943,
                        "swatch": "BI2A00037",
                        "trialNum": 43,
                        "response": "probably no",
                        "responseCoded": -2
                    },
                    {
                        "rt": 2807,
                        "swatch": "BI2A00005",
                        "trialNum": 44,
                        "response": "maybe yes",
                        "responseCoded": 1
                    },
                    {
                        "rt": 2534,
                        "swatch": "BI2A00023",
                        "trialNum": 45,
                        "response": "probably no",
                        "responseCoded": -2
                    },
                    {
                        "rt": 1830,
                        "swatch": "BI2A00033",
                        "trialNum": 46,
                        "response": "definitely no",
                        "responseCoded": 3
                    },
                    {
                        "rt": 1639,
                        "swatch": "BI2A00044",
                        "trialNum": 47,
                        "response": "definitely no",
                        "responseCoded": 3
                    },
                    {
                        "rt": 4871,
                        "swatch": "BI2A00010",
                        "trialNum": 48,
                        "response": "probably yes",
                        "responseCoded": 2
                    }
                ],
                "gender": "female",
                "age": "35",
                "comments": "Good survey, thank you.",
                "religion": [
                    "christianity_catholic"
                ],
                "condition": "happy",
                "fingerprintData": {
                    "ip": "66.214.121.199",
                    "screenHeight": 768,
                    "plugins": [
                        {
                            "description": "Enables Widevine licenses for playback of HTML audio/video content. (version: 1.4.6.758)",
                            "filename": "widevinecdmadapter.dll"
                        },
                        {
                            "description": "Shockwave Flash 16.0 r0",
                            "filename": "pepflashplayer.dll"
                        },
                        {
                            "description": "This plugin allows you to securely access other computers that have been shared with you. To use this plugin you must first install the <a href=\"https://chrome.google.com/remotedesktop\">Chrome Remote Desktop</a> webapp.",
                            "filename": "internal-remoting-viewer"
                        },
                        {
                            "description": "",
                            "filename": "internal-nacl-plugin"
                        },
                        {
                            "description": "",
                            "filename": "pdf.dll"
                        },
                        {
                            "description": "The QuickTime Plugin allows you to view a wide variety of multimedia content in Web pages. For more information, visit the <A HREF=http://www.apple.com/quicktime/>QuickTime</A> Web site.",
                            "filename": "npqtplugin.dll"
                        },
                        {
                            "description": "The QuickTime Plugin allows you to view a wide variety of multimedia content in Web pages. For more information, visit the <A HREF=http://www.apple.com/quicktime/>QuickTime</A> Web site.",
                            "filename": "npqtplugin2.dll"
                        },
                        {
                            "description": "The QuickTime Plugin allows you to view a wide variety of multimedia content in Web pages. For more information, visit the <A HREF=http://www.apple.com/quicktime/>QuickTime</A> Web site.",
                            "filename": "npqtplugin3.dll"
                        },
                        {
                            "description": "The QuickTime Plugin allows you to view a wide variety of multimedia content in Web pages. For more information, visit the <A HREF=http://www.apple.com/quicktime/>QuickTime</A> Web site.",
                            "filename": "npqtplugin4.dll"
                        },
                        {
                            "description": "The QuickTime Plugin allows you to view a wide variety of multimedia content in Web pages. For more information, visit the <A HREF=http://www.apple.com/quicktime/>QuickTime</A> Web site.",
                            "filename": "npqtplugin5.dll"
                        },
                        {
                            "description": "The plug-in allows you to open and edit files using Microsoft Office applications",
                            "filename": "NPSPWRAP.DLL"
                        },
                        {
                            "description": "Package Installer & Install Conduit",
                            "filename": "NPInstal.dll"
                        },
                        {
                            "description": "npapicomadapter",
                            "filename": "npapicomadapter.dll"
                        },
                        {
                            "description": "Google Update",
                            "filename": "npGoogleUpdate3.dll"
                        },
                        {
                            "description": "NPRuntime Script Plug-in Library for Java(TM) Deploy",
                            "filename": "npDeployJava1.dll"
                        },
                        {
                            "description": "Next Generation Java Plug-in 11.31.2 for Mozilla browsers",
                            "filename": "npjp2.dll"
                        },
                        {
                            "description": "Inquisit Mozilla Plugin 3.0.6.0",
                            "filename": "npInquisit_3060.dll"
                        },
                        {
                            "description": "Inquisit Mozilla Plugin 4.0.6.0",
                            "filename": "npInquisit.dll"
                        },
                        {
                            "description": "NPWLPG",
                            "filename": "NPWLPG.dll"
                        },
                        {
                            "description": "Unity Player 4.5.2f1",
                            "filename": "npUnity3D32.dll"
                        },
                        {
                            "description": "Adobe Shockwave for Director Netscape plug-in, version 12.1.3.153",
                            "filename": "np32dsw_1213153.dll"
                        },
                        {
                            "description": "5.1.31211.0",
                            "filename": "npctrl.dll"
                        }
                    ],
                    "timezone": 480,
                    "colorDepth": 24,
                    "screenWidth": 1366,
                    "geo": {
                        "city": "Hesperia",
                        "region_code": "CA",
                        "region_name": "California",
                        "ip": "66.214.121.199",
                        "time_zone": "America/Los_Angeles",
                        "longitude": -117.321,
                        "metro_code": 803,
                        "latitude": 34.366,
                        "country_code": "US",
                        "country_name": "United States",
                        "zip_code": "92345"
                    },
                    "browser": "Mozilla/5.0 (Windows NT 6.1; WOW64) AppleWebKit/537.36 (KHTML, like Gecko) Chrome/40.0.2214.115 Safari/537.36"
                },
                "ethnicity": [
                    "asian_eastAsian"
                ]
            }
        }
    },
    "AcceptTime": "2015-03-03T10:51:35Z",
    "HITId": "39TX062QX1XDAW3RDVV42F2R1TJX3X",
    "Assignment": "",
    "AssignmentStatus": "Approved",
    "SubmitTime": "2015-03-03T10:57:55Z"
}