{
    "ApprovalTime": "2015-03-03T11:02:36Z",
    "AutoApprovalTime": "2015-03-03T10:59:37Z",
    "AssignmentId": "3MMN5BL1W0D4242GPQYWGIIC73R3MK",
    "WorkerId": "ANVXAMUEBGV8N",
    "answers": {
        "data": {
            "trials": [],
            "condition": "feelings",
            "allData": {
                "education": "college_assocDegree",
                "englishNative": "yes_only",
                "trialData": [
                    {
                        "rt": 7031,
                        "swatch": "BI2A00010",
                        "trialNum": 1,
                        "response": "probably yes",
                        "responseCoded": 2
                    },
                    {
                        "rt": 2758,
                        "swatch": "BI2A00011",
                        "trialNum": 2,
                        "response": "probably yes",
                        "responseCoded": 2
                    },
                    {
                        "rt": 2503,
                        "swatch": "BI2A00002",
                        "trialNum": 3,
                        "response": "probably yes",
                        "responseCoded": 2
                    },
                    {
                        "rt": 6151,
                        "swatch": "BI2A00016",
                        "trialNum": 4,
                        "response": "maybe yes",
                        "responseCoded": 1
                    },
                    {
                        "rt": 2887,
                        "swatch": "BI2A00043",
                        "trialNum": 5,
                        "response": "probably no",
                        "responseCoded": -2
                    },
                    {
                        "rt": 3151,
                        "swatch": "BI2A00041",
                        "trialNum": 6,
                        "response": "definitely no",
                        "responseCoded": 3
                    },
                    {
                        "rt": 8978,
                        "swatch": "BI2A00023",
                        "trialNum": 7,
                        "response": "equally yes/no",
                        "responseCoded": 0
                    },
                    {
                        "rt": 3925,
                        "swatch": "BI2A00042",
                        "trialNum": 8,
                        "response": "definitely no",
                        "responseCoded": 3
                    },
                    {
                        "rt": 1351,
                        "swatch": "BI2A00033",
                        "trialNum": 9,
                        "response": "definitely no",
                        "responseCoded": 3
                    },
                    {
                        "rt": 1975,
                        "swatch": "BI2A00019",
                        "trialNum": 10,
                        "response": "definitely yes",
                        "responseCoded": 3
                    },
                    {
                        "rt": 1718,
                        "swatch": "BI2A00024",
                        "trialNum": 11,
                        "response": "definitely yes",
                        "responseCoded": 3
                    },
                    {
                        "rt": 3286,
                        "swatch": "BI2A00013",
                        "trialNum": 12,
                        "response": "equally yes/no",
                        "responseCoded": 0
                    },
                    {
                        "rt": 1919,
                        "swatch": "BI2A00001",
                        "trialNum": 13,
                        "response": "definitely yes",
                        "responseCoded": 3
                    },
                    {
                        "rt": 4647,
                        "swatch": "BI2A00027",
                        "trialNum": 14,
                        "response": "probably no",
                        "responseCoded": -2
                    },
                    {
                        "rt": 1671,
                        "swatch": "BI2A00036",
                        "trialNum": 15,
                        "response": "definitely no",
                        "responseCoded": 3
                    },
                    {
                        "rt": 2231,
                        "swatch": "BI2A00003",
                        "trialNum": 16,
                        "response": "equally yes/no",
                        "responseCoded": 0
                    },
                    {
                        "rt": 1969,
                        "swatch": "BI2A00039",
                        "trialNum": 17,
                        "response": "definitely no",
                        "responseCoded": 3
                    },
                    {
                        "rt": 3918,
                        "swatch": "BI2A00004",
                        "trialNum": 18,
                        "response": "definitely yes",
                        "responseCoded": 3
                    },
                    {
                        "rt": 1599,
                        "swatch": "BI2A00045",
                        "trialNum": 19,
                        "response": "definitely no",
                        "responseCoded": 3
                    },
                    {
                        "rt": 4214,
                        "swatch": "BI2A00034",
                        "trialNum": 20,
                        "response": "definitely no",
                        "responseCoded": 3
                    },
                    {
                        "rt": 3023,
                        "swatch": "BI2A00015",
                        "trialNum": 21,
                        "response": "definitely yes",
                        "responseCoded": 3
                    },
                    {
                        "rt": 1647,
                        "swatch": "BI2A00031",
                        "trialNum": 22,
                        "response": "definitely no",
                        "responseCoded": 3
                    },
                    {
                        "rt": 1359,
                        "swatch": "BI2A00012",
                        "trialNum": 23,
                        "response": "definitely no",
                        "responseCoded": 3
                    },
                    {
                        "rt": 1887,
                        "swatch": "BI2A00047",
                        "trialNum": 24,
                        "response": "definitely no",
                        "responseCoded": 3
                    },
                    {
                        "rt": 5551,
                        "swatch": "BI2A00022",
                        "trialNum": 25,
                        "response": "equally yes/no",
                        "responseCoded": 0
                    },
                    {
                        "rt": 5989,
                        "swatch": "BI2A00028",
                        "trialNum": 26,
                        "response": "definitely no",
                        "responseCoded": 3
                    },
                    {
                        "rt": 3591,
                        "swatch": "BI2A00018",
                        "trialNum": 27,
                        "response": "definitely no",
                        "responseCoded": 3
                    },
                    {
                        "rt": 2637,
                        "swatch": "BI2A00035",
                        "trialNum": 28,
                        "response": "definitely no",
                        "responseCoded": 3
                    },
                    {
                        "rt": 1759,
                        "swatch": "BI2A00029",
                        "trialNum": 29,
                        "response": "definitely no",
                        "responseCoded": 3
                    },
                    {
                        "rt": 3407,
                        "swatch": "BI2A00026",
                        "trialNum": 30,
                        "response": "equally yes/no",
                        "responseCoded": 0
                    },
                    {
                        "rt": 1567,
                        "swatch": "BI2A00005",
                        "trialNum": 31,
                        "response": "equally yes/no",
                        "responseCoded": 0
                    },
                    {
                        "rt": 1295,
                        "swatch": "BI2A00007",
                        "trialNum": 32,
                        "response": "equally yes/no",
                        "responseCoded": 0
                    },
                    {
                        "rt": 1256,
                        "swatch": "BI2A00009",
                        "trialNum": 33,
                        "response": "equally yes/no",
                        "responseCoded": 0
                    },
                    {
                        "rt": 1463,
                        "swatch": "BI2A00046",
                        "trialNum": 34,
                        "response": "definitely no",
                        "responseCoded": 3
                    },
                    {
                        "rt": 4247,
                        "swatch": "BI2A00020",
                        "trialNum": 35,
                        "response": "definitely no",
                        "responseCoded": 3
                    },
                    {
                        "rt": 1759,
                        "swatch": "BI2A00044",
                        "trialNum": 36,
                        "response": "definitely no",
                        "responseCoded": 3
                    },
                    {
                        "rt": 1839,
                        "swatch": "BI2A00014",
                        "trialNum": 37,
                        "response": "definitely no",
                        "responseCoded": 3
                    },
                    {
                        "rt": 1775,
                        "swatch": "BI2A00032",
                        "trialNum": 38,
                        "response": "definitely no",
                        "responseCoded": 3
                    },
                    {
                        "rt": 1807,
                        "swatch": "BI2A00040",
                        "trialNum": 39,
                        "response": "definitely no",
                        "responseCoded": 3
                    },
                    {
                        "rt": 1799,
                        "swatch": "BI2A00017",
                        "trialNum": 40,
                        "response": "definitely no",
                        "responseCoded": 3
                    },
                    {
                        "rt": 2463,
                        "swatch": "BI2A00006",
                        "trialNum": 41,
                        "response": "definitely yes",
                        "responseCoded": 3
                    },
                    {
                        "rt": 2486,
                        "swatch": "BI2A00037",
                        "trialNum": 42,
                        "response": "equally yes/no",
                        "responseCoded": 0
                    },
                    {
                        "rt": 1271,
                        "swatch": "BI2A00021",
                        "trialNum": 43,
                        "response": "equally yes/no",
                        "responseCoded": 0
                    },
                    {
                        "rt": 4078,
                        "swatch": "BI2A00025",
                        "trialNum": 44,
                        "response": "definitely no",
                        "responseCoded": 3
                    },
                    {
                        "rt": 1687,
                        "swatch": "BI2A00048",
                        "trialNum": 45,
                        "response": "definitely no",
                        "responseCoded": 3
                    },
                    {
                        "rt": 1807,
                        "swatch": "BI2A00030",
                        "trialNum": 46,
                        "response": "definitely no",
                        "responseCoded": 3
                    },
                    {
                        "rt": 1919,
                        "swatch": "BI2A00038",
                        "trialNum": 47,
                        "response": "definitely no",
                        "responseCoded": 3
                    },
                    {
                        "rt": 2887,
                        "swatch": "BI2A00008",
                        "trialNum": 48,
                        "response": "equally yes/no",
                        "responseCoded": 0
                    }
                ],
                "gender": "female",
                "age": "52",
                "comments": "",
                "religion": [
                    "none"
                ],
                "condition": "feelings",
                "fingerprintData": {
                    "ip": "73.175.61.45",
                    "screenHeight": 1080,
                    "plugins": [
                        {
                            "description": "Enables Widevine licenses for playback of HTML audio/video content. (version: 1.4.6.758)",
                            "filename": "widevinecdmadapter.dll"
                        },
                        {
                            "description": "Shockwave Flash 16.0 r0",
                            "filename": "pepflashplayer.dll"
                        },
                        {
                            "description": "",
                            "filename": "internal-nacl-plugin"
                        },
                        {
                            "description": "",
                            "filename": "pdf.dll"
                        },
                        {
                            "description": "Exent\ufffd AOD Gecko Plugin",
                            "filename": "npExentControl.dll"
                        },
                        {
                            "description": "Google Update",
                            "filename": "npGoogleUpdate3.dll"
                        },
                        {
                            "description": "Intel web components for Intel\ufffd Identity Protection Technology",
                            "filename": "npIntelWebAPIIPT.dll"
                        },
                        {
                            "description": "Intel web components updater - Installs and updates the Intel web components",
                            "filename": "npIntelWebAPIUpdater.dll"
                        },
                        {
                            "description": "Nitro PDF plugin for Firefox and Chrome",
                            "filename": "npnitromozilla.dll"
                        },
                        {
                            "description": "Inquisit Mozilla Plugin 4.0.8.0",
                            "filename": "npInquisit.dll"
                        },
                        {
                            "description": "McAfee MSC FF plugin DLL",
                            "filename": "NPMCSN~1.DLL"
                        },
                        {
                            "description": "4.0.50401.0",
                            "filename": "npctrl.dll"
                        }
                    ],
                    "timezone": 300,
                    "colorDepth": 24,
                    "screenWidth": 1920,
                    "geo": {
                        "city": "",
                        "region_code": "",
                        "region_name": "",
                        "ip": "73.175.61.45",
                        "time_zone": "",
                        "longitude": -97,
                        "metro_code": 0,
                        "latitude": 38,
                        "country_code": "US",
                        "country_name": "United States",
                        "zip_code": ""
                    },
                    "browser": "Mozilla/5.0 (Windows NT 6.3; WOW64) AppleWebKit/537.36 (KHTML, like Gecko) Chrome/40.0.2214.115 Safari/537.36"
                },
                "ethnicity": [
                    "white"
                ]
            }
        }
    },
    "AcceptTime": "2015-03-03T10:51:05Z",
    "HITId": "39TX062QX1XDAW3RDVV42F2R1TJX3X",
    "Assignment": "",
    "AssignmentStatus": "Approved",
    "SubmitTime": "2015-03-03T10:54:37Z"
}