{
    "ApprovalTime": "2015-03-03T11:07:37Z",
    "AutoApprovalTime": "2015-03-03T11:07:16Z",
    "AssignmentId": "3PM8NZGV8ZP73H7M18C147RLOZPQXU",
    "WorkerId": "A22TDMLJMDX39X",
    "answers": {
        "data": {
            "trials": [],
            "condition": "animal",
            "allData": {
                "education": "grad_degree",
                "englishNative": "yes_only",
                "trialData": [
                    {
                        "rt": 2592,
                        "swatch": "BI2A00035",
                        "trialNum": 1,
                        "response": "definitely no",
                        "responseCoded": 3
                    },
                    {
                        "rt": 9106,
                        "swatch": "BI2A00028",
                        "trialNum": 2,
                        "response": "equally yes/no",
                        "responseCoded": 0
                    },
                    {
                        "rt": 2381,
                        "swatch": "BI2A00034",
                        "trialNum": 3,
                        "response": "definitely no",
                        "responseCoded": 3
                    },
                    {
                        "rt": 1928,
                        "swatch": "BI2A00039",
                        "trialNum": 4,
                        "response": "definitely no",
                        "responseCoded": 3
                    },
                    {
                        "rt": 2071,
                        "swatch": "BI2A00025",
                        "trialNum": 5,
                        "response": "definitely no",
                        "responseCoded": 3
                    },
                    {
                        "rt": 2257,
                        "swatch": "BI2A00001",
                        "trialNum": 6,
                        "response": "equally yes/no",
                        "responseCoded": 0
                    },
                    {
                        "rt": 2869,
                        "swatch": "BI2A00023",
                        "trialNum": 7,
                        "response": "equally yes/no",
                        "responseCoded": 0
                    },
                    {
                        "rt": 2090,
                        "swatch": "BI2A00031",
                        "trialNum": 8,
                        "response": "definitely no",
                        "responseCoded": 3
                    },
                    {
                        "rt": 1980,
                        "swatch": "BI2A00029",
                        "trialNum": 9,
                        "response": "probably no",
                        "responseCoded": -2
                    },
                    {
                        "rt": 2157,
                        "swatch": "BI2A00022",
                        "trialNum": 10,
                        "response": "equally yes/no",
                        "responseCoded": 0
                    },
                    {
                        "rt": 2697,
                        "swatch": "BI2A00020",
                        "trialNum": 11,
                        "response": "maybe yes",
                        "responseCoded": 1
                    },
                    {
                        "rt": 2376,
                        "swatch": "BI2A00037",
                        "trialNum": 12,
                        "response": "definitely no",
                        "responseCoded": 3
                    },
                    {
                        "rt": 1834,
                        "swatch": "BI2A00047",
                        "trialNum": 13,
                        "response": "definitely no",
                        "responseCoded": 3
                    },
                    {
                        "rt": 2275,
                        "swatch": "BI2A00011",
                        "trialNum": 14,
                        "response": "definitely yes",
                        "responseCoded": 3
                    },
                    {
                        "rt": 3638,
                        "swatch": "BI2A00010",
                        "trialNum": 15,
                        "response": "equally yes/no",
                        "responseCoded": 0
                    },
                    {
                        "rt": 1948,
                        "swatch": "BI2A00048",
                        "trialNum": 16,
                        "response": "definitely no",
                        "responseCoded": 3
                    },
                    {
                        "rt": 2882,
                        "swatch": "BI2A00032",
                        "trialNum": 17,
                        "response": "maybe yes",
                        "responseCoded": 1
                    },
                    {
                        "rt": 2423,
                        "swatch": "BI2A00021",
                        "trialNum": 18,
                        "response": "probably no",
                        "responseCoded": -2
                    },
                    {
                        "rt": 2004,
                        "swatch": "BI2A00014",
                        "trialNum": 19,
                        "response": "probably no",
                        "responseCoded": -2
                    },
                    {
                        "rt": 2075,
                        "swatch": "BI2A00016",
                        "trialNum": 20,
                        "response": "probably yes",
                        "responseCoded": 2
                    },
                    {
                        "rt": 2788,
                        "swatch": "BI2A00005",
                        "trialNum": 21,
                        "response": "definitely yes",
                        "responseCoded": 3
                    },
                    {
                        "rt": 1919,
                        "swatch": "BI2A00009",
                        "trialNum": 22,
                        "response": "definitely yes",
                        "responseCoded": 3
                    },
                    {
                        "rt": 1994,
                        "swatch": "BI2A00004",
                        "trialNum": 23,
                        "response": "definitely yes",
                        "responseCoded": 3
                    },
                    {
                        "rt": 2216,
                        "swatch": "BI2A00042",
                        "trialNum": 24,
                        "response": "probably no",
                        "responseCoded": -2
                    },
                    {
                        "rt": 1914,
                        "swatch": "BI2A00038",
                        "trialNum": 25,
                        "response": "definitely no",
                        "responseCoded": 3
                    },
                    {
                        "rt": 2250,
                        "swatch": "BI2A00018",
                        "trialNum": 26,
                        "response": "equally yes/no",
                        "responseCoded": 0
                    },
                    {
                        "rt": 1938,
                        "swatch": "BI2A00046",
                        "trialNum": 27,
                        "response": "definitely no",
                        "responseCoded": 3
                    },
                    {
                        "rt": 1890,
                        "swatch": "BI2A00045",
                        "trialNum": 28,
                        "response": "definitely no",
                        "responseCoded": 3
                    },
                    {
                        "rt": 2925,
                        "swatch": "BI2A00041",
                        "trialNum": 29,
                        "response": "probably no",
                        "responseCoded": -2
                    },
                    {
                        "rt": 1986,
                        "swatch": "BI2A00002",
                        "trialNum": 30,
                        "response": "definitely yes",
                        "responseCoded": 3
                    },
                    {
                        "rt": 2359,
                        "swatch": "BI2A00017",
                        "trialNum": 31,
                        "response": "probably yes",
                        "responseCoded": 2
                    },
                    {
                        "rt": 1706,
                        "swatch": "BI2A00044",
                        "trialNum": 32,
                        "response": "definitely no",
                        "responseCoded": 3
                    },
                    {
                        "rt": 2049,
                        "swatch": "BI2A00019",
                        "trialNum": 33,
                        "response": "definitely yes",
                        "responseCoded": 3
                    },
                    {
                        "rt": 1905,
                        "swatch": "BI2A00006",
                        "trialNum": 34,
                        "response": "definitely yes",
                        "responseCoded": 3
                    },
                    {
                        "rt": 2137,
                        "swatch": "BI2A00015",
                        "trialNum": 35,
                        "response": "definitely yes",
                        "responseCoded": 3
                    },
                    {
                        "rt": 2207,
                        "swatch": "BI2A00024",
                        "trialNum": 36,
                        "response": "definitely yes",
                        "responseCoded": 3
                    },
                    {
                        "rt": 2112,
                        "swatch": "BI2A00036",
                        "trialNum": 37,
                        "response": "definitely no",
                        "responseCoded": 3
                    },
                    {
                        "rt": 2141,
                        "swatch": "BI2A00007",
                        "trialNum": 38,
                        "response": "definitely yes",
                        "responseCoded": 3
                    },
                    {
                        "rt": 3041,
                        "swatch": "BI2A00030",
                        "trialNum": 39,
                        "response": "equally yes/no",
                        "responseCoded": 0
                    },
                    {
                        "rt": 2817,
                        "swatch": "BI2A00043",
                        "trialNum": 40,
                        "response": "probably yes",
                        "responseCoded": 2
                    },
                    {
                        "rt": 2547,
                        "swatch": "BI2A00013",
                        "trialNum": 41,
                        "response": "probably yes",
                        "responseCoded": 2
                    },
                    {
                        "rt": 2431,
                        "swatch": "BI2A00033",
                        "trialNum": 42,
                        "response": "definitely no",
                        "responseCoded": 3
                    },
                    {
                        "rt": 2269,
                        "swatch": "BI2A00012",
                        "trialNum": 43,
                        "response": "probably yes",
                        "responseCoded": 2
                    },
                    {
                        "rt": 2076,
                        "swatch": "BI2A00026",
                        "trialNum": 44,
                        "response": "probably yes",
                        "responseCoded": 2
                    },
                    {
                        "rt": 1839,
                        "swatch": "BI2A00008",
                        "trialNum": 45,
                        "response": "definitely yes",
                        "responseCoded": 3
                    },
                    {
                        "rt": 2289,
                        "swatch": "BI2A00003",
                        "trialNum": 46,
                        "response": "definitely yes",
                        "responseCoded": 3
                    },
                    {
                        "rt": 2842,
                        "swatch": "BI2A00027",
                        "trialNum": 47,
                        "response": "probably no",
                        "responseCoded": -2
                    },
                    {
                        "rt": 1948,
                        "swatch": "BI2A00040",
                        "trialNum": 48,
                        "response": "definitely no",
                        "responseCoded": 3
                    }
                ],
                "gender": "male",
                "age": "29",
                "comments": "Great survey!",
                "religion": [
                    "christianity_morman"
                ],
                "condition": "animal",
                "fingerprintData": {
                    "ip": "174.20.179.206",
                    "screenHeight": 568,
                    "plugins": [
                        {
                            "description": "The QuickTime Plug-in allows you to view a wide variety of multimedia content in web pages. For more information, visit the <A HREF=\"http://www.apple.com/quicktime\">QuickTime</A> Web site.",
                            "filename": "QuickTime Plugin.webplugin"
                        }
                    ],
                    "timezone": 360,
                    "colorDepth": 32,
                    "screenWidth": 320,
                    "geo": {
                        "city": "Minneapolis",
                        "region_code": "MN",
                        "region_name": "Minnesota",
                        "ip": "174.20.179.206",
                        "time_zone": "America/Chicago",
                        "longitude": -93.264,
                        "metro_code": 613,
                        "latitude": 44.98,
                        "country_code": "US",
                        "country_name": "United States",
                        "zip_code": "55401"
                    },
                    "browser": "Mozilla/5.0 (iPhone; CPU iPhone OS 7_1_1 like Mac OS X) AppleWebKit/537.51.2 (KHTML, like Gecko) CriOS/40.0.2214.73 Mobile/11D201 Safari/9537.53 (000145)"
                },
                "ethnicity": [
                    "white"
                ]
            }
        }
    },
    "AcceptTime": "2015-03-03T10:54:37Z",
    "HITId": "39TX062QX1XDAW3RDVV42F2R1TJX3X",
    "Assignment": "",
    "AssignmentStatus": "Approved",
    "SubmitTime": "2015-03-03T11:02:16Z"
}