{
    "ApprovalTime": "2015-03-03T10:57:37Z",
    "AutoApprovalTime": "2015-03-03T10:56:19Z",
    "AssignmentId": "3RRCEFRB7NLT19HNYFD6C7ZO94JB4O",
    "WorkerId": "AKRFNRKI1IMJ1",
    "answers": {
        "data": {
            "trials": [],
            "condition": "sense",
            "allData": {
                "education": "grad_some",
                "englishNative": "yes_only",
                "trialData": [
                    {
                        "rt": 19541,
                        "swatch": "BI2A00003",
                        "trialNum": 1,
                        "response": "probably yes",
                        "responseCoded": 2
                    },
                    {
                        "rt": 8828,
                        "swatch": "BI2A00009",
                        "trialNum": 2,
                        "response": "maybe yes",
                        "responseCoded": 1
                    },
                    {
                        "rt": 2070,
                        "swatch": "BI2A00022",
                        "trialNum": 3,
                        "response": "equally yes/no",
                        "responseCoded": 0
                    },
                    {
                        "rt": 2028,
                        "swatch": "BI2A00034",
                        "trialNum": 4,
                        "response": "maybe no",
                        "responseCoded": -1
                    },
                    {
                        "rt": 2282,
                        "swatch": "BI2A00036",
                        "trialNum": 5,
                        "response": "probably no",
                        "responseCoded": -2
                    },
                    {
                        "rt": 3577,
                        "swatch": "BI2A00006",
                        "trialNum": 6,
                        "response": "maybe yes",
                        "responseCoded": 1
                    },
                    {
                        "rt": 3113,
                        "swatch": "BI2A00039",
                        "trialNum": 7,
                        "response": "probably no",
                        "responseCoded": -2
                    },
                    {
                        "rt": 4263,
                        "swatch": "BI2A00012",
                        "trialNum": 8,
                        "response": "equally yes/no",
                        "responseCoded": 0
                    },
                    {
                        "rt": 3049,
                        "swatch": "BI2A00021",
                        "trialNum": 9,
                        "response": "probably no",
                        "responseCoded": -2
                    },
                    {
                        "rt": 3064,
                        "swatch": "BI2A00007",
                        "trialNum": 10,
                        "response": "maybe yes",
                        "responseCoded": 1
                    },
                    {
                        "rt": 3653,
                        "swatch": "BI2A00010",
                        "trialNum": 11,
                        "response": "definitely no",
                        "responseCoded": 3
                    },
                    {
                        "rt": 4163,
                        "swatch": "BI2A00018",
                        "trialNum": 12,
                        "response": "definitely no",
                        "responseCoded": 3
                    },
                    {
                        "rt": 3430,
                        "swatch": "BI2A00004",
                        "trialNum": 13,
                        "response": "maybe yes",
                        "responseCoded": 1
                    },
                    {
                        "rt": 3914,
                        "swatch": "BI2A00038",
                        "trialNum": 14,
                        "response": "definitely no",
                        "responseCoded": 3
                    },
                    {
                        "rt": 3521,
                        "swatch": "BI2A00030",
                        "trialNum": 15,
                        "response": "probably no",
                        "responseCoded": -2
                    },
                    {
                        "rt": 3748,
                        "swatch": "BI2A00032",
                        "trialNum": 16,
                        "response": "probably no",
                        "responseCoded": -2
                    },
                    {
                        "rt": 2285,
                        "swatch": "BI2A00027",
                        "trialNum": 17,
                        "response": "definitely no",
                        "responseCoded": 3
                    },
                    {
                        "rt": 1982,
                        "swatch": "BI2A00033",
                        "trialNum": 18,
                        "response": "probably no",
                        "responseCoded": -2
                    },
                    {
                        "rt": 3838,
                        "swatch": "BI2A00026",
                        "trialNum": 19,
                        "response": "maybe no",
                        "responseCoded": -1
                    },
                    {
                        "rt": 2529,
                        "swatch": "BI2A00016",
                        "trialNum": 20,
                        "response": "maybe no",
                        "responseCoded": -1
                    },
                    {
                        "rt": 3338,
                        "swatch": "BI2A00015",
                        "trialNum": 21,
                        "response": "equally yes/no",
                        "responseCoded": 0
                    },
                    {
                        "rt": 3022,
                        "swatch": "BI2A00023",
                        "trialNum": 22,
                        "response": "maybe no",
                        "responseCoded": -1
                    },
                    {
                        "rt": 4220,
                        "swatch": "BI2A00029",
                        "trialNum": 23,
                        "response": "probably no",
                        "responseCoded": -2
                    },
                    {
                        "rt": 3011,
                        "swatch": "BI2A00031",
                        "trialNum": 24,
                        "response": "probably no",
                        "responseCoded": -2
                    },
                    {
                        "rt": 3270,
                        "swatch": "BI2A00043",
                        "trialNum": 25,
                        "response": "probably no",
                        "responseCoded": -2
                    },
                    {
                        "rt": 3917,
                        "swatch": "BI2A00011",
                        "trialNum": 26,
                        "response": "maybe yes",
                        "responseCoded": 1
                    },
                    {
                        "rt": 2944,
                        "swatch": "BI2A00019",
                        "trialNum": 27,
                        "response": "probably yes",
                        "responseCoded": 2
                    },
                    {
                        "rt": 120,
                        "swatch": "BI2A00040",
                        "trialNum": 28,
                        "response": "probably yes",
                        "responseCoded": 2
                    },
                    {
                        "rt": 3474,
                        "swatch": "BI2A00042",
                        "trialNum": 29,
                        "response": "maybe no",
                        "responseCoded": -1
                    },
                    {
                        "rt": 2539,
                        "swatch": "BI2A00047",
                        "trialNum": 30,
                        "response": "maybe no",
                        "responseCoded": -1
                    },
                    {
                        "rt": 3187,
                        "swatch": "BI2A00017",
                        "trialNum": 31,
                        "response": "maybe no",
                        "responseCoded": -1
                    },
                    {
                        "rt": 3137,
                        "swatch": "BI2A00048",
                        "trialNum": 32,
                        "response": "definitely no",
                        "responseCoded": 3
                    },
                    {
                        "rt": 4698,
                        "swatch": "BI2A00046",
                        "trialNum": 33,
                        "response": "definitely no",
                        "responseCoded": 3
                    },
                    {
                        "rt": 3660,
                        "swatch": "BI2A00013",
                        "trialNum": 34,
                        "response": "maybe no",
                        "responseCoded": -1
                    },
                    {
                        "rt": 3461,
                        "swatch": "BI2A00002",
                        "trialNum": 35,
                        "response": "equally yes/no",
                        "responseCoded": 0
                    },
                    {
                        "rt": 3344,
                        "swatch": "BI2A00008",
                        "trialNum": 36,
                        "response": "maybe yes",
                        "responseCoded": 1
                    },
                    {
                        "rt": 2507,
                        "swatch": "BI2A00005",
                        "trialNum": 37,
                        "response": "maybe yes",
                        "responseCoded": 1
                    },
                    {
                        "rt": 2666,
                        "swatch": "BI2A00024",
                        "trialNum": 38,
                        "response": "maybe yes",
                        "responseCoded": 1
                    },
                    {
                        "rt": 2862,
                        "swatch": "BI2A00001",
                        "trialNum": 39,
                        "response": "equally yes/no",
                        "responseCoded": 0
                    },
                    {
                        "rt": 2990,
                        "swatch": "BI2A00028",
                        "trialNum": 40,
                        "response": "maybe no",
                        "responseCoded": -1
                    },
                    {
                        "rt": 2950,
                        "swatch": "BI2A00025",
                        "trialNum": 41,
                        "response": "maybe no",
                        "responseCoded": -1
                    },
                    {
                        "rt": 3081,
                        "swatch": "BI2A00020",
                        "trialNum": 42,
                        "response": "equally yes/no",
                        "responseCoded": 0
                    },
                    {
                        "rt": 3133,
                        "swatch": "BI2A00045",
                        "trialNum": 43,
                        "response": "definitely no",
                        "responseCoded": 3
                    },
                    {
                        "rt": 6795,
                        "swatch": "BI2A00037",
                        "trialNum": 44,
                        "response": "maybe no",
                        "responseCoded": -1
                    },
                    {
                        "rt": 2606,
                        "swatch": "BI2A00014",
                        "trialNum": 45,
                        "response": "maybe no",
                        "responseCoded": -1
                    },
                    {
                        "rt": 2742,
                        "swatch": "BI2A00035",
                        "trialNum": 46,
                        "response": "probably no",
                        "responseCoded": -2
                    },
                    {
                        "rt": 2282,
                        "swatch": "BI2A00044",
                        "trialNum": 47,
                        "response": "probably no",
                        "responseCoded": -2
                    },
                    {
                        "rt": 1946,
                        "swatch": "BI2A00041",
                        "trialNum": 48,
                        "response": "probably no",
                        "responseCoded": -2
                    }
                ],
                "gender": "male",
                "age": "37",
                "comments": "none",
                "religion": [
                    "christianity_catholic"
                ],
                "condition": "sense",
                "fingerprintData": {
                    "ip": "76.106.243.147",
                    "screenHeight": 900,
                    "plugins": [
                        {
                            "description": "Adobe PDF Plug-In For Firefox and Netscape 11.0.03",
                            "filename": "nppdf32.dll"
                        },
                        {
                            "description": "Adobe PDF Plug-In For Firefox and Netscape 11.0.03",
                            "filename": "nppdf32.dll"
                        },
                        {
                            "description": "FortiClient SSLVPN CacheCleaner Firefox Plugin",
                            "filename": "npccplugin.dll"
                        },
                        {
                            "description": "FortiClient SSLVPN CacheCleanerEx Firefox Plugin",
                            "filename": "npccpluginex.dll"
                        },
                        {
                            "description": "FortiClient SSLVPN Tunnel Service Firefox Plugin",
                            "filename": "nptcplugin.dll"
                        },
                        {
                            "description": "GEPlugin",
                            "filename": "npgeplugin.dll"
                        },
                        {
                            "description": "Google Update",
                            "filename": "npGoogleUpdate3.dll"
                        },
                        {
                            "description": "Inquisit Mozilla Plugin 4.0.8.0",
                            "filename": "npInquisit.dll"
                        },
                        {
                            "description": "Shockwave Flash 16.0 r0",
                            "filename": "NPSWF32_16_0_0_305.dll"
                        },
                        {
                            "description": "5.1.30514.0",
                            "filename": "npctrl.dll"
                        },
                        {
                            "description": "WildTangent Games App V2 Presence Detector",
                            "filename": "NP_wtapp.dll"
                        }
                    ],
                    "timezone": 300,
                    "colorDepth": 24,
                    "screenWidth": 1600,
                    "geo": {
                        "city": "Orange Park",
                        "region_code": "FL",
                        "region_name": "Florida",
                        "ip": "76.106.243.147",
                        "time_zone": "America/New_York",
                        "longitude": -81.778,
                        "metro_code": 561,
                        "latitude": 30.129,
                        "country_code": "US",
                        "country_name": "United States",
                        "zip_code": "32065"
                    },
                    "browser": "Mozilla/5.0 (Windows NT 6.3; WOW64; rv:36.0) Gecko/20100101 Firefox/36.0"
                },
                "ethnicity": [
                    "white"
                ]
            }
        }
    },
    "AcceptTime": "2015-03-03T10:47:07Z",
    "HITId": "39TX062QX1XDAW3RDVV42F2R1TJX3X",
    "Assignment": "",
    "AssignmentStatus": "Approved",
    "SubmitTime": "2015-03-03T10:51:19Z"
}