{
    "ApprovalTime": "2015-03-03T10:52:37Z",
    "AutoApprovalTime": "2015-03-03T10:51:33Z",
    "AssignmentId": "3RWE2M8QWIJE3UOJI4VDRZ959HH0NM",
    "WorkerId": "A1M1F4BFYRK6JP",
    "answers": {
        "data": {
            "trials": [],
            "condition": "feelings",
            "allData": {
                "education": "college_assocDegree",
                "englishNative": "yes_only",
                "trialData": [
                    {
                        "rt": 11878,
                        "swatch": "BI2A00030",
                        "trialNum": 1,
                        "response": "definitely no",
                        "responseCoded": 3
                    },
                    {
                        "rt": 6602,
                        "swatch": "BI2A00020",
                        "trialNum": 2,
                        "response": "maybe no",
                        "responseCoded": -1
                    },
                    {
                        "rt": 4331,
                        "swatch": "BI2A00045",
                        "trialNum": 3,
                        "response": "definitely no",
                        "responseCoded": 3
                    },
                    {
                        "rt": 3861,
                        "swatch": "BI2A00008",
                        "trialNum": 4,
                        "response": "maybe yes",
                        "responseCoded": 1
                    },
                    {
                        "rt": 2422,
                        "swatch": "BI2A00016",
                        "trialNum": 5,
                        "response": "maybe yes",
                        "responseCoded": 1
                    },
                    {
                        "rt": 6126,
                        "swatch": "BI2A00012",
                        "trialNum": 6,
                        "response": "maybe no",
                        "responseCoded": -1
                    },
                    {
                        "rt": 2898,
                        "swatch": "BI2A00043",
                        "trialNum": 7,
                        "response": "definitely no",
                        "responseCoded": 3
                    },
                    {
                        "rt": 3198,
                        "swatch": "BI2A00037",
                        "trialNum": 8,
                        "response": "definitely no",
                        "responseCoded": 3
                    },
                    {
                        "rt": 4365,
                        "swatch": "BI2A00003",
                        "trialNum": 9,
                        "response": "probably yes",
                        "responseCoded": 2
                    },
                    {
                        "rt": 2676,
                        "swatch": "BI2A00040",
                        "trialNum": 10,
                        "response": "definitely no",
                        "responseCoded": 3
                    },
                    {
                        "rt": 5372,
                        "swatch": "BI2A00004",
                        "trialNum": 11,
                        "response": "maybe no",
                        "responseCoded": -1
                    },
                    {
                        "rt": 2059,
                        "swatch": "BI2A00039",
                        "trialNum": 12,
                        "response": "definitely no",
                        "responseCoded": 3
                    },
                    {
                        "rt": 5535,
                        "swatch": "BI2A00007",
                        "trialNum": 13,
                        "response": "maybe yes",
                        "responseCoded": 1
                    },
                    {
                        "rt": 2445,
                        "swatch": "BI2A00019",
                        "trialNum": 14,
                        "response": "maybe yes",
                        "responseCoded": 1
                    },
                    {
                        "rt": 6862,
                        "swatch": "BI2A00013",
                        "trialNum": 15,
                        "response": "probably no",
                        "responseCoded": -2
                    },
                    {
                        "rt": 2204,
                        "swatch": "BI2A00032",
                        "trialNum": 16,
                        "response": "definitely no",
                        "responseCoded": 3
                    },
                    {
                        "rt": 2380,
                        "swatch": "BI2A00038",
                        "trialNum": 17,
                        "response": "definitely no",
                        "responseCoded": 3
                    },
                    {
                        "rt": 1941,
                        "swatch": "BI2A00025",
                        "trialNum": 18,
                        "response": "definitely no",
                        "responseCoded": 3
                    },
                    {
                        "rt": 3822,
                        "swatch": "BI2A00002",
                        "trialNum": 19,
                        "response": "probably yes",
                        "responseCoded": 2
                    },
                    {
                        "rt": 3461,
                        "swatch": "BI2A00001",
                        "trialNum": 20,
                        "response": "probably yes",
                        "responseCoded": 2
                    },
                    {
                        "rt": 1877,
                        "swatch": "BI2A00018",
                        "trialNum": 21,
                        "response": "definitely no",
                        "responseCoded": 3
                    },
                    {
                        "rt": 6444,
                        "swatch": "BI2A00023",
                        "trialNum": 22,
                        "response": "equally yes/no",
                        "responseCoded": 0
                    },
                    {
                        "rt": 3196,
                        "swatch": "BI2A00006",
                        "trialNum": 23,
                        "response": "probably yes",
                        "responseCoded": 2
                    },
                    {
                        "rt": 3694,
                        "swatch": "BI2A00027",
                        "trialNum": 24,
                        "response": "definitely no",
                        "responseCoded": 3
                    },
                    {
                        "rt": 4222,
                        "swatch": "BI2A00009",
                        "trialNum": 25,
                        "response": "maybe yes",
                        "responseCoded": 1
                    },
                    {
                        "rt": 2338,
                        "swatch": "BI2A00017",
                        "trialNum": 26,
                        "response": "definitely no",
                        "responseCoded": 3
                    },
                    {
                        "rt": 1693,
                        "swatch": "BI2A00047",
                        "trialNum": 27,
                        "response": "definitely no",
                        "responseCoded": 3
                    },
                    {
                        "rt": 2810,
                        "swatch": "BI2A00044",
                        "trialNum": 28,
                        "response": "definitely no",
                        "responseCoded": 3
                    },
                    {
                        "rt": 1293,
                        "swatch": "BI2A00035",
                        "trialNum": 29,
                        "response": "definitely no",
                        "responseCoded": 3
                    },
                    {
                        "rt": 2967,
                        "swatch": "BI2A00029",
                        "trialNum": 30,
                        "response": "definitely no",
                        "responseCoded": 3
                    },
                    {
                        "rt": 1277,
                        "swatch": "BI2A00036",
                        "trialNum": 31,
                        "response": "definitely no",
                        "responseCoded": 3
                    },
                    {
                        "rt": 1279,
                        "swatch": "BI2A00046",
                        "trialNum": 32,
                        "response": "definitely no",
                        "responseCoded": 3
                    },
                    {
                        "rt": 5906,
                        "swatch": "BI2A00010",
                        "trialNum": 33,
                        "response": "probably no",
                        "responseCoded": -2
                    },
                    {
                        "rt": 5732,
                        "swatch": "BI2A00014",
                        "trialNum": 34,
                        "response": "definitely no",
                        "responseCoded": 3
                    },
                    {
                        "rt": 1695,
                        "swatch": "BI2A00034",
                        "trialNum": 35,
                        "response": "definitely no",
                        "responseCoded": 3
                    },
                    {
                        "rt": 1046,
                        "swatch": "BI2A00031",
                        "trialNum": 36,
                        "response": "definitely no",
                        "responseCoded": 3
                    },
                    {
                        "rt": 2246,
                        "swatch": "BI2A00021",
                        "trialNum": 37,
                        "response": "definitely no",
                        "responseCoded": 3
                    },
                    {
                        "rt": 4318,
                        "swatch": "BI2A00005",
                        "trialNum": 38,
                        "response": "maybe yes",
                        "responseCoded": 1
                    },
                    {
                        "rt": 4747,
                        "swatch": "BI2A00041",
                        "trialNum": 39,
                        "response": "definitely no",
                        "responseCoded": 3
                    },
                    {
                        "rt": 2781,
                        "swatch": "BI2A00042",
                        "trialNum": 40,
                        "response": "definitely no",
                        "responseCoded": 3
                    },
                    {
                        "rt": 6262,
                        "swatch": "BI2A00024",
                        "trialNum": 41,
                        "response": "maybe yes",
                        "responseCoded": 1
                    },
                    {
                        "rt": 2005,
                        "swatch": "BI2A00033",
                        "trialNum": 42,
                        "response": "definitely no",
                        "responseCoded": 3
                    },
                    {
                        "rt": 5085,
                        "swatch": "BI2A00011",
                        "trialNum": 43,
                        "response": "probably yes",
                        "responseCoded": 2
                    },
                    {
                        "rt": 6461,
                        "swatch": "BI2A00026",
                        "trialNum": 44,
                        "response": "maybe no",
                        "responseCoded": -1
                    },
                    {
                        "rt": 4861,
                        "swatch": "BI2A00015",
                        "trialNum": 45,
                        "response": "probably yes",
                        "responseCoded": 2
                    },
                    {
                        "rt": 3877,
                        "swatch": "BI2A00022",
                        "trialNum": 46,
                        "response": "maybe yes",
                        "responseCoded": 1
                    },
                    {
                        "rt": 1589,
                        "swatch": "BI2A00048",
                        "trialNum": 47,
                        "response": "definitely no",
                        "responseCoded": 3
                    },
                    {
                        "rt": 7765,
                        "swatch": "BI2A00028",
                        "trialNum": 48,
                        "response": "probably no",
                        "responseCoded": -2
                    }
                ],
                "gender": "male",
                "age": "35",
                "comments": "",
                "religion": [
                    "none"
                ],
                "condition": "feelings",
                "fingerprintData": {
                    "ip": "75.109.144.109",
                    "screenHeight": 1080,
                    "plugins": [
                        {
                            "description": "Enables Widevine licenses for playback of HTML audio/video content. (version: 1.4.6.758)",
                            "filename": "widevinecdmadapter.dll"
                        },
                        {
                            "description": "This plugin allows you to securely access other computers that have been shared with you. To use this plugin you must first install the <a href=\"https://chrome.google.com/remotedesktop\">Chrome Remote Desktop</a> webapp.",
                            "filename": "internal-remoting-viewer"
                        },
                        {
                            "description": "",
                            "filename": "internal-nacl-plugin"
                        },
                        {
                            "description": "",
                            "filename": "pdf.dll"
                        },
                        {
                            "description": "The QuickTime Plugin allows you to view a wide variety of multimedia content in Web pages. For more information, visit the <A HREF=http://www.apple.com/quicktime/>QuickTime</A> Web site.",
                            "filename": "npqtplugin.dll"
                        },
                        {
                            "description": "The QuickTime Plugin allows you to view a wide variety of multimedia content in Web pages. For more information, visit the <A HREF=http://www.apple.com/quicktime/>QuickTime</A> Web site.",
                            "filename": "npqtplugin2.dll"
                        },
                        {
                            "description": "The QuickTime Plugin allows you to view a wide variety of multimedia content in Web pages. For more information, visit the <A HREF=http://www.apple.com/quicktime/>QuickTime</A> Web site.",
                            "filename": "npqtplugin3.dll"
                        },
                        {
                            "description": "The QuickTime Plugin allows you to view a wide variety of multimedia content in Web pages. For more information, visit the <A HREF=http://www.apple.com/quicktime/>QuickTime</A> Web site.",
                            "filename": "npqtplugin4.dll"
                        },
                        {
                            "description": "The QuickTime Plugin allows you to view a wide variety of multimedia content in Web pages. For more information, visit the <A HREF=http://www.apple.com/quicktime/>QuickTime</A> Web site.",
                            "filename": "npqtplugin5.dll"
                        },
                        {
                            "description": "DivX VOD Helper Plug-in",
                            "filename": "npovshelper.dll"
                        },
                        {
                            "description": "DivX Web Player version 3.2.4.1250",
                            "filename": "npdivx32.dll"
                        },
                        {
                            "description": "Foxit Reader Plug-In For Firefox and Netscape",
                            "filename": "npFoxitReaderPlugin.dll"
                        },
                        {
                            "description": "Google Update",
                            "filename": "npGoogleUpdate3.dll"
                        },
                        {
                            "description": "NPRuntime Script Plug-in Library for Java(TM) Deploy",
                            "filename": "npDeployJava1.dll"
                        },
                        {
                            "description": "Next Generation Java Plug-in 10.51.2 for Mozilla browsers",
                            "filename": "npjp2.dll"
                        },
                        {
                            "description": "Inquisit Mozilla Plugin 3.0.6.0",
                            "filename": "npInquisit_3060.dll"
                        },
                        {
                            "description": "Inquisit Mozilla Plugin 4.0.3.0",
                            "filename": "npInquisit.dll"
                        },
                        {
                            "description": "Unity Player 4.6.2f1",
                            "filename": "npUnity3D32.dll"
                        },
                        {
                            "description": "Shockwave Flash 16.0 r0",
                            "filename": "NPSWF32_16_0_0_296.dll"
                        },
                        {
                            "description": "5.1.30514.0",
                            "filename": "npctrl.dll"
                        }
                    ],
                    "timezone": 300,
                    "colorDepth": 24,
                    "screenWidth": 1920,
                    "geo": {
                        "city": "Greenville",
                        "region_code": "NC",
                        "region_name": "North Carolina",
                        "ip": "75.109.144.109",
                        "time_zone": "America/New_York",
                        "longitude": -77.167,
                        "metro_code": 545,
                        "latitude": 35.688,
                        "country_code": "US",
                        "country_name": "United States",
                        "zip_code": "27834"
                    },
                    "browser": "Mozilla/5.0 (Windows NT 6.1; WOW64) AppleWebKit/537.36 (KHTML, like Gecko) Chrome/40.0.2214.111 Safari/537.36"
                },
                "ethnicity": [
                    "white"
                ]
            }
        }
    },
    "AcceptTime": "2015-03-03T10:41:59Z",
    "HITId": "39TX062QX1XDAW3RDVV42F2R1TJX3X",
    "Assignment": "",
    "AssignmentStatus": "Approved",
    "SubmitTime": "2015-03-03T10:46:33Z"
}