{
    "ApprovalTime": "2015-03-03T11:02:36Z",
    "AutoApprovalTime": "2015-03-03T11:00:46Z",
    "AssignmentId": "3T3IWE1XG7W0M0Y2WYB4F46FB31TQE",
    "WorkerId": "A5K76AYNR5OIH",
    "answers": {
        "data": {
            "trials": [],
            "condition": "happy",
            "allData": {
                "education": "college_some",
                "englishNative": "yes_only",
                "trialData": [
                    {
                        "rt": 12088,
                        "swatch": "BI2A00013",
                        "trialNum": 1,
                        "response": "probably yes",
                        "responseCoded": 2
                    },
                    {
                        "rt": 4637,
                        "swatch": "BI2A00028",
                        "trialNum": 2,
                        "response": "maybe yes",
                        "responseCoded": 1
                    },
                    {
                        "rt": 16150,
                        "swatch": "BI2A00039",
                        "trialNum": 3,
                        "response": "equally yes/no",
                        "responseCoded": 0
                    },
                    {
                        "rt": 3363,
                        "swatch": "BI2A00014",
                        "trialNum": 4,
                        "response": "maybe no",
                        "responseCoded": -1
                    },
                    {
                        "rt": 2975,
                        "swatch": "BI2A00041",
                        "trialNum": 5,
                        "response": "probably no",
                        "responseCoded": -2
                    },
                    {
                        "rt": 2361,
                        "swatch": "BI2A00046",
                        "trialNum": 6,
                        "response": "equally yes/no",
                        "responseCoded": 0
                    },
                    {
                        "rt": 1465,
                        "swatch": "BI2A00007",
                        "trialNum": 7,
                        "response": "maybe yes",
                        "responseCoded": 1
                    },
                    {
                        "rt": 2110,
                        "swatch": "BI2A00010",
                        "trialNum": 8,
                        "response": "equally yes/no",
                        "responseCoded": 0
                    },
                    {
                        "rt": 2049,
                        "swatch": "BI2A00016",
                        "trialNum": 9,
                        "response": "maybe yes",
                        "responseCoded": 1
                    },
                    {
                        "rt": 3050,
                        "swatch": "BI2A00009",
                        "trialNum": 10,
                        "response": "maybe yes",
                        "responseCoded": 1
                    },
                    {
                        "rt": 1956,
                        "swatch": "BI2A00017",
                        "trialNum": 11,
                        "response": "maybe no",
                        "responseCoded": -1
                    },
                    {
                        "rt": 1483,
                        "swatch": "BI2A00029",
                        "trialNum": 12,
                        "response": "maybe yes",
                        "responseCoded": 1
                    },
                    {
                        "rt": 2214,
                        "swatch": "BI2A00037",
                        "trialNum": 13,
                        "response": "maybe no",
                        "responseCoded": -1
                    },
                    {
                        "rt": 1888,
                        "swatch": "BI2A00035",
                        "trialNum": 14,
                        "response": "maybe no",
                        "responseCoded": -1
                    },
                    {
                        "rt": 1824,
                        "swatch": "BI2A00008",
                        "trialNum": 15,
                        "response": "equally yes/no",
                        "responseCoded": 0
                    },
                    {
                        "rt": 1720,
                        "swatch": "BI2A00019",
                        "trialNum": 16,
                        "response": "maybe no",
                        "responseCoded": -1
                    },
                    {
                        "rt": 2242,
                        "swatch": "BI2A00018",
                        "trialNum": 17,
                        "response": "probably no",
                        "responseCoded": -2
                    },
                    {
                        "rt": 1027,
                        "swatch": "BI2A00021",
                        "trialNum": 18,
                        "response": "probably no",
                        "responseCoded": -2
                    },
                    {
                        "rt": 1978,
                        "swatch": "BI2A00020",
                        "trialNum": 19,
                        "response": "maybe yes",
                        "responseCoded": 1
                    },
                    {
                        "rt": 7917,
                        "swatch": "BI2A00045",
                        "trialNum": 20,
                        "response": "equally yes/no",
                        "responseCoded": 0
                    },
                    {
                        "rt": 4823,
                        "swatch": "BI2A00023",
                        "trialNum": 21,
                        "response": "probably no",
                        "responseCoded": -2
                    },
                    {
                        "rt": 3011,
                        "swatch": "BI2A00043",
                        "trialNum": 22,
                        "response": "maybe yes",
                        "responseCoded": 1
                    },
                    {
                        "rt": 1567,
                        "swatch": "BI2A00026",
                        "trialNum": 23,
                        "response": "maybe yes",
                        "responseCoded": 1
                    },
                    {
                        "rt": 2262,
                        "swatch": "BI2A00042",
                        "trialNum": 24,
                        "response": "equally yes/no",
                        "responseCoded": 0
                    },
                    {
                        "rt": 1603,
                        "swatch": "BI2A00048",
                        "trialNum": 25,
                        "response": "probably yes",
                        "responseCoded": 2
                    },
                    {
                        "rt": 929,
                        "swatch": "BI2A00036",
                        "trialNum": 26,
                        "response": "probably yes",
                        "responseCoded": 2
                    },
                    {
                        "rt": 1657,
                        "swatch": "BI2A00040",
                        "trialNum": 27,
                        "response": "maybe yes",
                        "responseCoded": 1
                    },
                    {
                        "rt": 1053,
                        "swatch": "BI2A00025",
                        "trialNum": 28,
                        "response": "maybe yes",
                        "responseCoded": 1
                    },
                    {
                        "rt": 1456,
                        "swatch": "BI2A00004",
                        "trialNum": 29,
                        "response": "maybe yes",
                        "responseCoded": 1
                    },
                    {
                        "rt": 1845,
                        "swatch": "BI2A00011",
                        "trialNum": 30,
                        "response": "probably no",
                        "responseCoded": -2
                    },
                    {
                        "rt": 3098,
                        "swatch": "BI2A00012",
                        "trialNum": 31,
                        "response": "maybe no",
                        "responseCoded": -1
                    },
                    {
                        "rt": 1445,
                        "swatch": "BI2A00047",
                        "trialNum": 32,
                        "response": "equally yes/no",
                        "responseCoded": 0
                    },
                    {
                        "rt": 3289,
                        "swatch": "BI2A00044",
                        "trialNum": 33,
                        "response": "maybe no",
                        "responseCoded": -1
                    },
                    {
                        "rt": 1705,
                        "swatch": "BI2A00030",
                        "trialNum": 34,
                        "response": "probably no",
                        "responseCoded": -2
                    },
                    {
                        "rt": 2941,
                        "swatch": "BI2A00038",
                        "trialNum": 35,
                        "response": "equally yes/no",
                        "responseCoded": 0
                    },
                    {
                        "rt": 1212,
                        "swatch": "BI2A00033",
                        "trialNum": 36,
                        "response": "maybe no",
                        "responseCoded": -1
                    },
                    {
                        "rt": 2852,
                        "swatch": "BI2A00022",
                        "trialNum": 37,
                        "response": "maybe no",
                        "responseCoded": -1
                    },
                    {
                        "rt": 1774,
                        "swatch": "BI2A00024",
                        "trialNum": 38,
                        "response": "probably no",
                        "responseCoded": -2
                    },
                    {
                        "rt": 1651,
                        "swatch": "BI2A00015",
                        "trialNum": 39,
                        "response": "maybe no",
                        "responseCoded": -1
                    },
                    {
                        "rt": 1788,
                        "swatch": "BI2A00005",
                        "trialNum": 40,
                        "response": "probably yes",
                        "responseCoded": 2
                    },
                    {
                        "rt": 1958,
                        "swatch": "BI2A00003",
                        "trialNum": 41,
                        "response": "probably yes",
                        "responseCoded": 2
                    },
                    {
                        "rt": 986,
                        "swatch": "BI2A00002",
                        "trialNum": 42,
                        "response": "probably yes",
                        "responseCoded": 2
                    },
                    {
                        "rt": 1457,
                        "swatch": "BI2A00034",
                        "trialNum": 43,
                        "response": "maybe no",
                        "responseCoded": -1
                    },
                    {
                        "rt": 1423,
                        "swatch": "BI2A00027",
                        "trialNum": 44,
                        "response": "maybe no",
                        "responseCoded": -1
                    },
                    {
                        "rt": 1215,
                        "swatch": "BI2A00006",
                        "trialNum": 45,
                        "response": "maybe yes",
                        "responseCoded": 1
                    },
                    {
                        "rt": 2531,
                        "swatch": "BI2A00031",
                        "trialNum": 46,
                        "response": "equally yes/no",
                        "responseCoded": 0
                    },
                    {
                        "rt": 1427,
                        "swatch": "BI2A00032",
                        "trialNum": 47,
                        "response": "maybe no",
                        "responseCoded": -1
                    },
                    {
                        "rt": 1603,
                        "swatch": "BI2A00001",
                        "trialNum": 48,
                        "response": "maybe yes",
                        "responseCoded": 1
                    }
                ],
                "gender": "male",
                "age": "29",
                "comments": "",
                "religion": [
                    "none"
                ],
                "condition": "happy",
                "fingerprintData": {},
                "ethnicity": [
                    "white"
                ]
            }
        }
    },
    "AcceptTime": "2015-03-03T10:50:47Z",
    "HITId": "39TX062QX1XDAW3RDVV42F2R1TJX3X",
    "Assignment": "",
    "AssignmentStatus": "Approved",
    "SubmitTime": "2015-03-03T10:55:46Z"
}