{
    "ApprovalTime": "2015-03-03T10:57:37Z",
    "AutoApprovalTime": "2015-03-03T10:57:05Z",
    "AssignmentId": "3T3IWE1XG7W0M0Y2WYB4F46FB31QTB",
    "WorkerId": "AFOLAU6E19OB7",
    "answers": {
        "data": {
            "trials": [],
            "condition": "happy",
            "allData": {
                "education": "hs_diploma",
                "englishNative": "yes_only",
                "trialData": [
                    {
                        "rt": 20323,
                        "swatch": "BI2A00003",
                        "trialNum": 1,
                        "response": "definitely yes",
                        "responseCoded": 3
                    },
                    {
                        "rt": 15048,
                        "swatch": "BI2A00043",
                        "trialNum": 2,
                        "response": "probably no",
                        "responseCoded": -2
                    },
                    {
                        "rt": 4167,
                        "swatch": "BI2A00031",
                        "trialNum": 3,
                        "response": "definitely no",
                        "responseCoded": 3
                    },
                    {
                        "rt": 8908,
                        "swatch": "BI2A00024",
                        "trialNum": 4,
                        "response": "definitely yes",
                        "responseCoded": 3
                    },
                    {
                        "rt": 7211,
                        "swatch": "BI2A00039",
                        "trialNum": 5,
                        "response": "definitely no",
                        "responseCoded": 3
                    },
                    {
                        "rt": 3940,
                        "swatch": "BI2A00046",
                        "trialNum": 6,
                        "response": "definitely no",
                        "responseCoded": 3
                    },
                    {
                        "rt": 4352,
                        "swatch": "BI2A00033",
                        "trialNum": 7,
                        "response": "probably no",
                        "responseCoded": -2
                    },
                    {
                        "rt": 3886,
                        "swatch": "BI2A00017",
                        "trialNum": 8,
                        "response": "maybe yes",
                        "responseCoded": 1
                    },
                    {
                        "rt": 4528,
                        "swatch": "BI2A00005",
                        "trialNum": 9,
                        "response": "probably yes",
                        "responseCoded": 2
                    },
                    {
                        "rt": 3960,
                        "swatch": "BI2A00009",
                        "trialNum": 10,
                        "response": "maybe yes",
                        "responseCoded": 1
                    },
                    {
                        "rt": 4055,
                        "swatch": "BI2A00029",
                        "trialNum": 11,
                        "response": "probably no",
                        "responseCoded": -2
                    },
                    {
                        "rt": 4626,
                        "swatch": "BI2A00028",
                        "trialNum": 12,
                        "response": "maybe no",
                        "responseCoded": -1
                    },
                    {
                        "rt": 2474,
                        "swatch": "BI2A00044",
                        "trialNum": 13,
                        "response": "definitely no",
                        "responseCoded": 3
                    },
                    {
                        "rt": 2583,
                        "swatch": "BI2A00001",
                        "trialNum": 14,
                        "response": "probably yes",
                        "responseCoded": 2
                    },
                    {
                        "rt": 6275,
                        "swatch": "BI2A00041",
                        "trialNum": 15,
                        "response": "definitely no",
                        "responseCoded": 3
                    },
                    {
                        "rt": 6137,
                        "swatch": "BI2A00011",
                        "trialNum": 16,
                        "response": "probably yes",
                        "responseCoded": 2
                    },
                    {
                        "rt": 4624,
                        "swatch": "BI2A00002",
                        "trialNum": 17,
                        "response": "probably yes",
                        "responseCoded": 2
                    },
                    {
                        "rt": 2608,
                        "swatch": "BI2A00038",
                        "trialNum": 18,
                        "response": "definitely no",
                        "responseCoded": 3
                    },
                    {
                        "rt": 3883,
                        "swatch": "BI2A00030",
                        "trialNum": 19,
                        "response": "maybe no",
                        "responseCoded": -1
                    },
                    {
                        "rt": 6066,
                        "swatch": "BI2A00019",
                        "trialNum": 20,
                        "response": "maybe yes",
                        "responseCoded": 1
                    },
                    {
                        "rt": 3192,
                        "swatch": "BI2A00015",
                        "trialNum": 21,
                        "response": "maybe yes",
                        "responseCoded": 1
                    },
                    {
                        "rt": 2866,
                        "swatch": "BI2A00008",
                        "trialNum": 22,
                        "response": "probably yes",
                        "responseCoded": 2
                    },
                    {
                        "rt": 3325,
                        "swatch": "BI2A00012",
                        "trialNum": 23,
                        "response": "maybe yes",
                        "responseCoded": 1
                    },
                    {
                        "rt": 2225,
                        "swatch": "BI2A00048",
                        "trialNum": 24,
                        "response": "definitely no",
                        "responseCoded": 3
                    },
                    {
                        "rt": 4069,
                        "swatch": "BI2A00021",
                        "trialNum": 25,
                        "response": "probably no",
                        "responseCoded": -2
                    },
                    {
                        "rt": 3003,
                        "swatch": "BI2A00004",
                        "trialNum": 26,
                        "response": "probably yes",
                        "responseCoded": 2
                    },
                    {
                        "rt": 2217,
                        "swatch": "BI2A00035",
                        "trialNum": 27,
                        "response": "definitely no",
                        "responseCoded": 3
                    },
                    {
                        "rt": 4939,
                        "swatch": "BI2A00023",
                        "trialNum": 28,
                        "response": "probably no",
                        "responseCoded": -2
                    },
                    {
                        "rt": 4438,
                        "swatch": "BI2A00037",
                        "trialNum": 29,
                        "response": "definitely no",
                        "responseCoded": 3
                    },
                    {
                        "rt": 1827,
                        "swatch": "BI2A00036",
                        "trialNum": 30,
                        "response": "definitely no",
                        "responseCoded": 3
                    },
                    {
                        "rt": 6173,
                        "swatch": "BI2A00027",
                        "trialNum": 31,
                        "response": "maybe no",
                        "responseCoded": -1
                    },
                    {
                        "rt": 3615,
                        "swatch": "BI2A00010",
                        "trialNum": 32,
                        "response": "maybe yes",
                        "responseCoded": 1
                    },
                    {
                        "rt": 4245,
                        "swatch": "BI2A00020",
                        "trialNum": 33,
                        "response": "maybe no",
                        "responseCoded": -1
                    },
                    {
                        "rt": 2434,
                        "swatch": "BI2A00006",
                        "trialNum": 34,
                        "response": "probably yes",
                        "responseCoded": 2
                    },
                    {
                        "rt": 7114,
                        "swatch": "BI2A00022",
                        "trialNum": 35,
                        "response": "maybe yes",
                        "responseCoded": 1
                    },
                    {
                        "rt": 8440,
                        "swatch": "BI2A00016",
                        "trialNum": 36,
                        "response": "maybe no",
                        "responseCoded": -1
                    },
                    {
                        "rt": 1944,
                        "swatch": "BI2A00040",
                        "trialNum": 37,
                        "response": "definitely no",
                        "responseCoded": 3
                    },
                    {
                        "rt": 3266,
                        "swatch": "BI2A00047",
                        "trialNum": 38,
                        "response": "definitely no",
                        "responseCoded": 3
                    },
                    {
                        "rt": 3601,
                        "swatch": "BI2A00014",
                        "trialNum": 39,
                        "response": "maybe yes",
                        "responseCoded": 1
                    },
                    {
                        "rt": 5136,
                        "swatch": "BI2A00013",
                        "trialNum": 40,
                        "response": "maybe yes",
                        "responseCoded": 1
                    },
                    {
                        "rt": 3511,
                        "swatch": "BI2A00018",
                        "trialNum": 41,
                        "response": "maybe no",
                        "responseCoded": -1
                    },
                    {
                        "rt": 2528,
                        "swatch": "BI2A00007",
                        "trialNum": 42,
                        "response": "probably yes",
                        "responseCoded": 2
                    },
                    {
                        "rt": 4378,
                        "swatch": "BI2A00032",
                        "trialNum": 43,
                        "response": "probably no",
                        "responseCoded": -2
                    },
                    {
                        "rt": 2436,
                        "swatch": "BI2A00025",
                        "trialNum": 44,
                        "response": "definitely no",
                        "responseCoded": 3
                    },
                    {
                        "rt": 1481,
                        "swatch": "BI2A00045",
                        "trialNum": 45,
                        "response": "definitely no",
                        "responseCoded": 3
                    },
                    {
                        "rt": 2510,
                        "swatch": "BI2A00026",
                        "trialNum": 46,
                        "response": "probably yes",
                        "responseCoded": 2
                    },
                    {
                        "rt": 3268,
                        "swatch": "BI2A00034",
                        "trialNum": 47,
                        "response": "probably no",
                        "responseCoded": -2
                    },
                    {
                        "rt": 4021,
                        "swatch": "BI2A00042",
                        "trialNum": 48,
                        "response": "definitely no",
                        "responseCoded": 3
                    }
                ],
                "gender": "male",
                "age": "39",
                "comments": "",
                "religion": [
                    "none"
                ],
                "condition": "happy",
                "fingerprintData": {
                    "ip": "76.26.87.162",
                    "screenHeight": 900,
                    "plugins": [
                        {
                            "description": "Google Update",
                            "filename": "npGoogleUpdate3.dll"
                        },
                        {
                            "description": "NPRuntime Script Plug-in Library for Java(TM) Deploy",
                            "filename": "npdeployJava1.dll"
                        },
                        {
                            "description": "Next Generation Java Plug-in 10.67.2 for Mozilla browsers",
                            "filename": "npjp2.dll"
                        },
                        {
                            "description": "Shockwave Flash 16.0 r0",
                            "filename": "NPSWF32_16_0_0_305.dll"
                        },
                        {
                            "description": "Adobe Shockwave for Director Netscape plug-in, version 11.6.5.635",
                            "filename": "np32dsw.dll"
                        },
                        {
                            "description": "NPWLPG",
                            "filename": "NPWLPG.dll"
                        }
                    ],
                    "timezone": 300,
                    "colorDepth": 24,
                    "screenWidth": 1600,
                    "geo": {
                        "city": "Charleston",
                        "region_code": "WV",
                        "region_name": "West Virginia",
                        "ip": "76.26.87.162",
                        "time_zone": "America/New_York",
                        "longitude": -81.633,
                        "metro_code": 564,
                        "latitude": 38.35,
                        "country_code": "US",
                        "country_name": "United States",
                        "zip_code": "25301"
                    },
                    "browser": "Mozilla/5.0 (Windows NT 6.3; WOW64; rv:35.0) Gecko/20100101 Firefox/35.0"
                },
                "ethnicity": [
                    "white"
                ]
            }
        }
    },
    "AcceptTime": "2015-03-03T10:44:38Z",
    "HITId": "39TX062QX1XDAW3RDVV42F2R1TJX3X",
    "Assignment": "",
    "AssignmentStatus": "Approved",
    "SubmitTime": "2015-03-03T10:52:05Z"
}