{
    "ApprovalTime": "2015-03-03T11:07:36Z",
    "AutoApprovalTime": "2015-03-03T11:06:00Z",
    "AssignmentId": "3TU5ZICBREAHOG6ET009O8ASXPFQ8J",
    "WorkerId": "ARG392N6HWZCJ",
    "answers": {
        "data": {
            "trials": [],
            "condition": "sense",
            "allData": {
                "education": "college_some",
                "englishNative": "yes_only",
                "trialData": [
                    {
                        "rt": 1744,
                        "swatch": "BI2A00008",
                        "trialNum": 1,
                        "response": "maybe yes",
                        "responseCoded": 1
                    },
                    {
                        "rt": 849,
                        "swatch": "BI2A00043",
                        "trialNum": 2,
                        "response": "equally yes/no",
                        "responseCoded": 0
                    },
                    {
                        "rt": 1380,
                        "swatch": "BI2A00003",
                        "trialNum": 3,
                        "response": "maybe yes",
                        "responseCoded": 1
                    },
                    {
                        "rt": 1153,
                        "swatch": "BI2A00035",
                        "trialNum": 4,
                        "response": "equally yes/no",
                        "responseCoded": 0
                    },
                    {
                        "rt": 598,
                        "swatch": "BI2A00006",
                        "trialNum": 5,
                        "response": "equally yes/no",
                        "responseCoded": 0
                    },
                    {
                        "rt": 888,
                        "swatch": "BI2A00002",
                        "trialNum": 6,
                        "response": "maybe yes",
                        "responseCoded": 1
                    },
                    {
                        "rt": 575,
                        "swatch": "BI2A00021",
                        "trialNum": 7,
                        "response": "equally yes/no",
                        "responseCoded": 0
                    },
                    {
                        "rt": 997,
                        "swatch": "BI2A00001",
                        "trialNum": 8,
                        "response": "probably yes",
                        "responseCoded": 2
                    },
                    {
                        "rt": 484,
                        "swatch": "BI2A00044",
                        "trialNum": 9,
                        "response": "maybe yes",
                        "responseCoded": 1
                    },
                    {
                        "rt": 555,
                        "swatch": "BI2A00034",
                        "trialNum": 10,
                        "response": "equally yes/no",
                        "responseCoded": 0
                    },
                    {
                        "rt": 1461,
                        "swatch": "BI2A00029",
                        "trialNum": 11,
                        "response": "maybe yes",
                        "responseCoded": 1
                    },
                    {
                        "rt": 85674,
                        "swatch": "BI2A00024",
                        "trialNum": 12,
                        "response": "maybe yes",
                        "responseCoded": 1
                    },
                    {
                        "rt": 2827,
                        "swatch": "BI2A00028",
                        "trialNum": 13,
                        "response": "maybe yes",
                        "responseCoded": 1
                    },
                    {
                        "rt": 969,
                        "swatch": "BI2A00022",
                        "trialNum": 14,
                        "response": "probably yes",
                        "responseCoded": 2
                    },
                    {
                        "rt": 708,
                        "swatch": "BI2A00036",
                        "trialNum": 15,
                        "response": "equally yes/no",
                        "responseCoded": 0
                    },
                    {
                        "rt": 1249,
                        "swatch": "BI2A00039",
                        "trialNum": 16,
                        "response": "equally yes/no",
                        "responseCoded": 0
                    },
                    {
                        "rt": 1005,
                        "swatch": "BI2A00033",
                        "trialNum": 17,
                        "response": "maybe yes",
                        "responseCoded": 1
                    },
                    {
                        "rt": 1575,
                        "swatch": "BI2A00030",
                        "trialNum": 18,
                        "response": "probably yes",
                        "responseCoded": 2
                    },
                    {
                        "rt": 1082,
                        "swatch": "BI2A00026",
                        "trialNum": 19,
                        "response": "maybe no",
                        "responseCoded": -1
                    },
                    {
                        "rt": 866,
                        "swatch": "BI2A00037",
                        "trialNum": 20,
                        "response": "maybe yes",
                        "responseCoded": 1
                    },
                    {
                        "rt": 1035,
                        "swatch": "BI2A00023",
                        "trialNum": 21,
                        "response": "equally yes/no",
                        "responseCoded": 0
                    },
                    {
                        "rt": 1482,
                        "swatch": "BI2A00020",
                        "trialNum": 22,
                        "response": "maybe yes",
                        "responseCoded": 1
                    },
                    {
                        "rt": 1131,
                        "swatch": "BI2A00038",
                        "trialNum": 23,
                        "response": "probably yes",
                        "responseCoded": 2
                    },
                    {
                        "rt": 850,
                        "swatch": "BI2A00042",
                        "trialNum": 24,
                        "response": "equally yes/no",
                        "responseCoded": 0
                    },
                    {
                        "rt": 978,
                        "swatch": "BI2A00018",
                        "trialNum": 25,
                        "response": "maybe yes",
                        "responseCoded": 1
                    },
                    {
                        "rt": 1045,
                        "swatch": "BI2A00040",
                        "trialNum": 26,
                        "response": "maybe no",
                        "responseCoded": -1
                    },
                    {
                        "rt": 745,
                        "swatch": "BI2A00027",
                        "trialNum": 27,
                        "response": "equally yes/no",
                        "responseCoded": 0
                    },
                    {
                        "rt": 4337,
                        "swatch": "BI2A00004",
                        "trialNum": 28,
                        "response": "maybe yes",
                        "responseCoded": 1
                    },
                    {
                        "rt": 883,
                        "swatch": "BI2A00011",
                        "trialNum": 29,
                        "response": "equally yes/no",
                        "responseCoded": 0
                    },
                    {
                        "rt": 570,
                        "swatch": "BI2A00012",
                        "trialNum": 30,
                        "response": "maybe yes",
                        "responseCoded": 1
                    },
                    {
                        "rt": 977,
                        "swatch": "BI2A00046",
                        "trialNum": 31,
                        "response": "maybe yes",
                        "responseCoded": 1
                    },
                    {
                        "rt": 659,
                        "swatch": "BI2A00014",
                        "trialNum": 32,
                        "response": "probably yes",
                        "responseCoded": 2
                    },
                    {
                        "rt": 844,
                        "swatch": "BI2A00017",
                        "trialNum": 33,
                        "response": "equally yes/no",
                        "responseCoded": 0
                    },
                    {
                        "rt": 650,
                        "swatch": "BI2A00016",
                        "trialNum": 34,
                        "response": "maybe no",
                        "responseCoded": -1
                    },
                    {
                        "rt": 579,
                        "swatch": "BI2A00031",
                        "trialNum": 35,
                        "response": "maybe yes",
                        "responseCoded": 1
                    },
                    {
                        "rt": 558,
                        "swatch": "BI2A00015",
                        "trialNum": 36,
                        "response": "equally yes/no",
                        "responseCoded": 0
                    },
                    {
                        "rt": 636,
                        "swatch": "BI2A00019",
                        "trialNum": 37,
                        "response": "equally yes/no",
                        "responseCoded": 0
                    },
                    {
                        "rt": 484,
                        "swatch": "BI2A00048",
                        "trialNum": 38,
                        "response": "maybe yes",
                        "responseCoded": 1
                    },
                    {
                        "rt": 571,
                        "swatch": "BI2A00009",
                        "trialNum": 39,
                        "response": "probably yes",
                        "responseCoded": 2
                    },
                    {
                        "rt": 475,
                        "swatch": "BI2A00025",
                        "trialNum": 40,
                        "response": "maybe yes",
                        "responseCoded": 1
                    },
                    {
                        "rt": 427,
                        "swatch": "BI2A00032",
                        "trialNum": 41,
                        "response": "equally yes/no",
                        "responseCoded": 0
                    },
                    {
                        "rt": 1223,
                        "swatch": "BI2A00041",
                        "trialNum": 42,
                        "response": "maybe yes",
                        "responseCoded": 1
                    },
                    {
                        "rt": 704,
                        "swatch": "BI2A00047",
                        "trialNum": 43,
                        "response": "equally yes/no",
                        "responseCoded": 0
                    },
                    {
                        "rt": 35825,
                        "swatch": "BI2A00005",
                        "trialNum": 44,
                        "response": "maybe yes",
                        "responseCoded": 1
                    },
                    {
                        "rt": 2277,
                        "swatch": "BI2A00007",
                        "trialNum": 45,
                        "response": "probably yes",
                        "responseCoded": 2
                    },
                    {
                        "rt": 1793,
                        "swatch": "BI2A00045",
                        "trialNum": 46,
                        "response": "maybe no",
                        "responseCoded": -1
                    },
                    {
                        "rt": 817,
                        "swatch": "BI2A00010",
                        "trialNum": 47,
                        "response": "maybe yes",
                        "responseCoded": 1
                    },
                    {
                        "rt": 910,
                        "swatch": "BI2A00013",
                        "trialNum": 48,
                        "response": "equally yes/no",
                        "responseCoded": 0
                    }
                ],
                "gender": "male",
                "age": "22",
                "comments": "Thanks",
                "religion": [
                    "christianity_protestant"
                ],
                "condition": "sense",
                "fingerprintData": {
                    "ip": "72.182.52.80",
                    "screenHeight": 800,
                    "plugins": [
                        {
                            "description": "WebEx64 General Plugin Container Version 205",
                            "filename": "WebEx64.plugin"
                        },
                        {
                            "description": "Adobe\ufffd Acrobat\ufffd Plug-in for Web Browsers, Version 11.0.03",
                            "filename": "AdobePDFViewerNPAPI.plugin"
                        },
                        {
                            "description": "Amazon MP3 Downloader Plugin 1.0.17",
                            "filename": "AmazonMP3DownloaderPlugin101750.plugin"
                        },
                        {
                            "description": "DivX Plus Web Player version 2.3.1.51",
                            "filename": "DivX Plus Web Player.plugin"
                        },
                        {
                            "description": "Shockwave Flash 16.0 r0",
                            "filename": "Flash Player.plugin"
                        },
                        {
                            "description": "iPhoto6",
                            "filename": "iPhotoPhotocast.plugin"
                        },
                        {
                            "description": "Displays Java applet content, or a placeholder if Java is not installed.",
                            "filename": "JavaAppletPlugin.plugin"
                        },
                        {
                            "description": "DivX VOD Helper Plug-in",
                            "filename": "OVSHelper.plugin"
                        },
                        {
                            "description": "The QuickTime Plugin allows you to view a wide variety of multimedia content in web pages. For more information, visit the <A HREF=http://www.apple.com/quicktime>QuickTime</A> Web site.",
                            "filename": "QuickTime Plugin.plugin"
                        },
                        {
                            "description": "5.1.30514.0",
                            "filename": "Silverlight.plugin"
                        },
                        {
                            "description": "",
                            "filename": ""
                        }
                    ],
                    "timezone": 360,
                    "colorDepth": 24,
                    "screenWidth": 1280,
                    "geo": {
                        "city": "Austin",
                        "region_code": "TX",
                        "region_name": "Texas",
                        "ip": "72.182.52.80",
                        "time_zone": "America/Chicago",
                        "longitude": -97.723,
                        "metro_code": 635,
                        "latitude": 30.311,
                        "country_code": "US",
                        "country_name": "United States",
                        "zip_code": "78751"
                    },
                    "browser": "Mozilla/5.0 (Macintosh; Intel Mac OS X 10_6_8) AppleWebKit/534.59.8 (KHTML, like Gecko) Version/5.1.9 Safari/534.59.8"
                },
                "ethnicity": [
                    "asian_eastAsian"
                ]
            }
        }
    },
    "AcceptTime": "2015-03-03T10:57:00Z",
    "HITId": "39TX062QX1XDAW3RDVV42F2R1TJX3X",
    "Assignment": "",
    "AssignmentStatus": "Approved",
    "SubmitTime": "2015-03-03T11:01:00Z"
}