{
    "AutoApprovalTime": "2015-03-03T11:24:56Z",
    "AssignmentId": "3TVSS0C0E2956XUO87AA7TO1Z4ITWI",
    "WorkerId": "A1GHCVQ5XWM3JL",
    "answers": {
        "data": {
            "trials": [],
            "condition": "feelings",
            "allData": {
                "education": "hs_diploma",
                "englishNative": "yes_only",
                "trialData": [
                    {
                        "rt": 12361,
                        "swatch": "BI2A00022",
                        "trialNum": 1,
                        "response": "definitely yes",
                        "responseCoded": 3
                    },
                    {
                        "rt": 11632,
                        "swatch": "BI2A00045",
                        "trialNum": 2,
                        "response": "maybe no",
                        "responseCoded": -1
                    },
                    {
                        "rt": 5384,
                        "swatch": "BI2A00007",
                        "trialNum": 3,
                        "response": "maybe yes",
                        "responseCoded": 1
                    },
                    {
                        "rt": 5686,
                        "swatch": "BI2A00029",
                        "trialNum": 4,
                        "response": "probably no",
                        "responseCoded": -2
                    },
                    {
                        "rt": 11600,
                        "swatch": "BI2A00010",
                        "trialNum": 5,
                        "response": "maybe no",
                        "responseCoded": -1
                    },
                    {
                        "rt": 3713,
                        "swatch": "BI2A00036",
                        "trialNum": 6,
                        "response": "probably no",
                        "responseCoded": -2
                    },
                    {
                        "rt": 5350,
                        "swatch": "BI2A00048",
                        "trialNum": 7,
                        "response": "probably no",
                        "responseCoded": -2
                    },
                    {
                        "rt": 6781,
                        "swatch": "BI2A00008",
                        "trialNum": 8,
                        "response": "definitely no",
                        "responseCoded": 3
                    },
                    {
                        "rt": 4879,
                        "swatch": "BI2A00012",
                        "trialNum": 9,
                        "response": "definitely yes",
                        "responseCoded": 3
                    },
                    {
                        "rt": 9203,
                        "swatch": "BI2A00023",
                        "trialNum": 10,
                        "response": "definitely no",
                        "responseCoded": 3
                    },
                    {
                        "rt": 3313,
                        "swatch": "BI2A00032",
                        "trialNum": 11,
                        "response": "probably yes",
                        "responseCoded": 2
                    },
                    {
                        "rt": 3883,
                        "swatch": "BI2A00038",
                        "trialNum": 12,
                        "response": "maybe no",
                        "responseCoded": -1
                    },
                    {
                        "rt": 8841,
                        "swatch": "BI2A00006",
                        "trialNum": 13,
                        "response": "probably yes",
                        "responseCoded": 2
                    },
                    {
                        "rt": 2718,
                        "swatch": "BI2A00014",
                        "trialNum": 14,
                        "response": "probably yes",
                        "responseCoded": 2
                    },
                    {
                        "rt": 5119,
                        "swatch": "BI2A00009",
                        "trialNum": 15,
                        "response": "maybe yes",
                        "responseCoded": 1
                    },
                    {
                        "rt": 8796,
                        "swatch": "BI2A00020",
                        "trialNum": 16,
                        "response": "probably no",
                        "responseCoded": -2
                    },
                    {
                        "rt": 5101,
                        "swatch": "BI2A00034",
                        "trialNum": 17,
                        "response": "maybe yes",
                        "responseCoded": 1
                    },
                    {
                        "rt": 2031,
                        "swatch": "BI2A00018",
                        "trialNum": 18,
                        "response": "definitely yes",
                        "responseCoded": 3
                    },
                    {
                        "rt": 3837,
                        "swatch": "BI2A00013",
                        "trialNum": 19,
                        "response": "probably yes",
                        "responseCoded": 2
                    },
                    {
                        "rt": 5665,
                        "swatch": "BI2A00024",
                        "trialNum": 20,
                        "response": "probably yes",
                        "responseCoded": 2
                    },
                    {
                        "rt": 6710,
                        "swatch": "BI2A00041",
                        "trialNum": 21,
                        "response": "maybe yes",
                        "responseCoded": 1
                    },
                    {
                        "rt": 7480,
                        "swatch": "BI2A00042",
                        "trialNum": 22,
                        "response": "maybe yes",
                        "responseCoded": 1
                    },
                    {
                        "rt": 2855,
                        "swatch": "BI2A00004",
                        "trialNum": 23,
                        "response": "probably yes",
                        "responseCoded": 2
                    },
                    {
                        "rt": 5201,
                        "swatch": "BI2A00005",
                        "trialNum": 24,
                        "response": "probably no",
                        "responseCoded": -2
                    },
                    {
                        "rt": 5076,
                        "swatch": "BI2A00031",
                        "trialNum": 25,
                        "response": "maybe no",
                        "responseCoded": -1
                    },
                    {
                        "rt": 2130,
                        "swatch": "BI2A00044",
                        "trialNum": 26,
                        "response": "definitely no",
                        "responseCoded": 3
                    },
                    {
                        "rt": 4997,
                        "swatch": "BI2A00021",
                        "trialNum": 27,
                        "response": "probably no",
                        "responseCoded": -2
                    },
                    {
                        "rt": 3005,
                        "swatch": "BI2A00002",
                        "trialNum": 28,
                        "response": "probably no",
                        "responseCoded": -2
                    },
                    {
                        "rt": 4129,
                        "swatch": "BI2A00046",
                        "trialNum": 29,
                        "response": "probably no",
                        "responseCoded": -2
                    },
                    {
                        "rt": 3534,
                        "swatch": "BI2A00033",
                        "trialNum": 30,
                        "response": "probably yes",
                        "responseCoded": 2
                    },
                    {
                        "rt": 1935,
                        "swatch": "BI2A00037",
                        "trialNum": 31,
                        "response": "probably yes",
                        "responseCoded": 2
                    },
                    {
                        "rt": 5700,
                        "swatch": "BI2A00011",
                        "trialNum": 32,
                        "response": "probably no",
                        "responseCoded": -2
                    },
                    {
                        "rt": 1401,
                        "swatch": "BI2A00001",
                        "trialNum": 33,
                        "response": "probably no",
                        "responseCoded": -2
                    },
                    {
                        "rt": 6146,
                        "swatch": "BI2A00019",
                        "trialNum": 34,
                        "response": "maybe yes",
                        "responseCoded": 1
                    },
                    {
                        "rt": 3310,
                        "swatch": "BI2A00035",
                        "trialNum": 35,
                        "response": "probably no",
                        "responseCoded": -2
                    },
                    {
                        "rt": 2399,
                        "swatch": "BI2A00040",
                        "trialNum": 36,
                        "response": "probably no",
                        "responseCoded": -2
                    },
                    {
                        "rt": 5485,
                        "swatch": "BI2A00030",
                        "trialNum": 37,
                        "response": "probably yes",
                        "responseCoded": 2
                    },
                    {
                        "rt": 2948,
                        "swatch": "BI2A00003",
                        "trialNum": 38,
                        "response": "maybe no",
                        "responseCoded": -1
                    },
                    {
                        "rt": 4753,
                        "swatch": "BI2A00017",
                        "trialNum": 39,
                        "response": "probably yes",
                        "responseCoded": 2
                    },
                    {
                        "rt": 3157,
                        "swatch": "BI2A00039",
                        "trialNum": 40,
                        "response": "probably yes",
                        "responseCoded": 2
                    },
                    {
                        "rt": 9761,
                        "swatch": "BI2A00027",
                        "trialNum": 41,
                        "response": "definitely no",
                        "responseCoded": 3
                    },
                    {
                        "rt": 6815,
                        "swatch": "BI2A00047",
                        "trialNum": 42,
                        "response": "maybe no",
                        "responseCoded": -1
                    },
                    {
                        "rt": 1933,
                        "swatch": "BI2A00015",
                        "trialNum": 43,
                        "response": "maybe no",
                        "responseCoded": -1
                    },
                    {
                        "rt": 7449,
                        "swatch": "BI2A00016",
                        "trialNum": 44,
                        "response": "probably no",
                        "responseCoded": -2
                    },
                    {
                        "rt": 1885,
                        "swatch": "BI2A00026",
                        "trialNum": 45,
                        "response": "probably no",
                        "responseCoded": -2
                    },
                    {
                        "rt": 3949,
                        "swatch": "BI2A00028",
                        "trialNum": 46,
                        "response": "maybe yes",
                        "responseCoded": 1
                    },
                    {
                        "rt": 7046,
                        "swatch": "BI2A00025",
                        "trialNum": 47,
                        "response": "maybe yes",
                        "responseCoded": 1
                    },
                    {
                        "rt": 5271,
                        "swatch": "BI2A00043",
                        "trialNum": 48,
                        "response": "definitely yes",
                        "responseCoded": 3
                    }
                ],
                "gender": "male",
                "age": "32",
                "comments": "The only thing was at the beginning it took long to load the survey. I have pretty fast cable internet so I thought there was a problem, but after it did load up, the rest of the survey went perfect and was easy to complete.",
                "religion": [
                    "none"
                ],
                "condition": "feelings",
                "fingerprintData": {
                    "ip": "184.58.237.131",
                    "screenHeight": 768,
                    "plugins": [
                        {
                            "description": "Enables Widevine licenses for playback of HTML audio/video content. (version: 1.4.6.758)",
                            "filename": "widevinecdmadapter.dll"
                        },
                        {
                            "description": "Shockwave Flash 16.0 r0",
                            "filename": "pepflashplayer.dll"
                        },
                        {
                            "description": "",
                            "filename": "internal-nacl-plugin"
                        },
                        {
                            "description": "",
                            "filename": "pdf.dll"
                        },
                        {
                            "description": "Npdsplay dll",
                            "filename": "npdsplay.dll"
                        },
                        {
                            "description": "DRM Store Netscape Plugin",
                            "filename": "npwmsdrm.dll"
                        },
                        {
                            "description": "DRM Netscape Network Object",
                            "filename": "npdrmv2.dll"
                        },
                        {
                            "description": "Inquisit Mozilla Plugin 4.0.8.0",
                            "filename": "npInquisit.dll"
                        },
                        {
                            "description": "Adobe PDF Plug-In For Firefox and Netscape 11.0.8",
                            "filename": "nppdf32.dll"
                        },
                        {
                            "description": "CANON iMAGE GATEWAY Album Plugin Utility Module for IJ",
                            "filename": "npmigfpi.dll"
                        },
                        {
                            "description": "Google Update",
                            "filename": "npGoogleUpdate3.dll"
                        },
                        {
                            "description": "Inquisit Mozilla Plugin 3.0.6.0",
                            "filename": "npInquisit_3060.dll"
                        }
                    ],
                    "timezone": 360,
                    "colorDepth": 24,
                    "screenWidth": 1024,
                    "geo": {
                        "city": "Milwaukee",
                        "region_code": "WI",
                        "region_name": "Wisconsin",
                        "ip": "184.58.237.131",
                        "time_zone": "America/Chicago",
                        "longitude": -87.944,
                        "metro_code": 617,
                        "latitude": 43.005,
                        "country_code": "US",
                        "country_name": "United States",
                        "zip_code": "53215"
                    },
                    "browser": "Mozilla/5.0 (Windows NT 5.1) AppleWebKit/537.36 (KHTML, like Gecko) Chrome/40.0.2214.115 Safari/537.36"
                },
                "ethnicity": [
                    "white"
                ]
            }
        }
    },
    "AcceptTime": "2015-03-03T11:05:25Z",
    "HITId": "39TX062QX1XDAW3RDVV42F2R1TJX3X",
    "Assignment": "",
    "AssignmentStatus": "Submitted",
    "SubmitTime": "2015-03-03T11:19:56Z"
}