{
    "ApprovalTime": "2015-03-03T11:07:37Z",
    "AutoApprovalTime": "2015-03-03T11:07:24Z",
    "AssignmentId": "3TYCR1GOTDSLHFROALSQK682MT0LZX",
    "WorkerId": "AGMJL8K9OMU64",
    "answers": {
        "data": {
            "trials": [],
            "condition": "think",
            "allData": {
                "education": "college_bachDegree",
                "englishNative": "yes_only",
                "trialData": [
                    {
                        "rt": 12946,
                        "swatch": "BI2A00006",
                        "trialNum": 1,
                        "response": "definitely yes",
                        "responseCoded": 3
                    },
                    {
                        "rt": 2492,
                        "swatch": "BI2A00007",
                        "trialNum": 2,
                        "response": "definitely yes",
                        "responseCoded": 3
                    },
                    {
                        "rt": 3606,
                        "swatch": "BI2A00018",
                        "trialNum": 3,
                        "response": "maybe yes",
                        "responseCoded": 1
                    },
                    {
                        "rt": 6059,
                        "swatch": "BI2A00023",
                        "trialNum": 4,
                        "response": "probably no",
                        "responseCoded": -2
                    },
                    {
                        "rt": 1646,
                        "swatch": "BI2A00017",
                        "trialNum": 5,
                        "response": "probably no",
                        "responseCoded": -2
                    },
                    {
                        "rt": 3924,
                        "swatch": "BI2A00042",
                        "trialNum": 6,
                        "response": "definitely no",
                        "responseCoded": 3
                    },
                    {
                        "rt": 2230,
                        "swatch": "BI2A00019",
                        "trialNum": 7,
                        "response": "maybe yes",
                        "responseCoded": 1
                    },
                    {
                        "rt": 3408,
                        "swatch": "BI2A00030",
                        "trialNum": 8,
                        "response": "probably no",
                        "responseCoded": -2
                    },
                    {
                        "rt": 2423,
                        "swatch": "BI2A00036",
                        "trialNum": 9,
                        "response": "definitely no",
                        "responseCoded": 3
                    },
                    {
                        "rt": 1128,
                        "swatch": "BI2A00035",
                        "trialNum": 10,
                        "response": "definitely no",
                        "responseCoded": 3
                    },
                    {
                        "rt": 2909,
                        "swatch": "BI2A00008",
                        "trialNum": 11,
                        "response": "probably yes",
                        "responseCoded": 2
                    },
                    {
                        "rt": 1865,
                        "swatch": "BI2A00014",
                        "trialNum": 12,
                        "response": "probably no",
                        "responseCoded": -2
                    },
                    {
                        "rt": 3573,
                        "swatch": "BI2A00009",
                        "trialNum": 13,
                        "response": "definitely yes",
                        "responseCoded": 3
                    },
                    {
                        "rt": 1604,
                        "swatch": "BI2A00015",
                        "trialNum": 14,
                        "response": "definitely yes",
                        "responseCoded": 3
                    },
                    {
                        "rt": 1880,
                        "swatch": "BI2A00028",
                        "trialNum": 15,
                        "response": "definitely no",
                        "responseCoded": 3
                    },
                    {
                        "rt": 995,
                        "swatch": "BI2A00046",
                        "trialNum": 16,
                        "response": "definitely no",
                        "responseCoded": 3
                    },
                    {
                        "rt": 2855,
                        "swatch": "BI2A00001",
                        "trialNum": 17,
                        "response": "definitely yes",
                        "responseCoded": 3
                    },
                    {
                        "rt": 3540,
                        "swatch": "BI2A00027",
                        "trialNum": 18,
                        "response": "probably no",
                        "responseCoded": -2
                    },
                    {
                        "rt": 1416,
                        "swatch": "BI2A00045",
                        "trialNum": 19,
                        "response": "definitely no",
                        "responseCoded": 3
                    },
                    {
                        "rt": 1768,
                        "swatch": "BI2A00026",
                        "trialNum": 20,
                        "response": "probably no",
                        "responseCoded": -2
                    },
                    {
                        "rt": 2222,
                        "swatch": "BI2A00004",
                        "trialNum": 21,
                        "response": "definitely yes",
                        "responseCoded": 3
                    },
                    {
                        "rt": 2607,
                        "swatch": "BI2A00039",
                        "trialNum": 22,
                        "response": "definitely no",
                        "responseCoded": 3
                    },
                    {
                        "rt": 3230,
                        "swatch": "BI2A00043",
                        "trialNum": 23,
                        "response": "definitely no",
                        "responseCoded": 3
                    },
                    {
                        "rt": 3144,
                        "swatch": "BI2A00034",
                        "trialNum": 24,
                        "response": "probably no",
                        "responseCoded": -2
                    },
                    {
                        "rt": 1842,
                        "swatch": "BI2A00044",
                        "trialNum": 25,
                        "response": "definitely no",
                        "responseCoded": 3
                    },
                    {
                        "rt": 1805,
                        "swatch": "BI2A00021",
                        "trialNum": 26,
                        "response": "probably no",
                        "responseCoded": -2
                    },
                    {
                        "rt": 3424,
                        "swatch": "BI2A00024",
                        "trialNum": 27,
                        "response": "probably no",
                        "responseCoded": -2
                    },
                    {
                        "rt": 4220,
                        "swatch": "BI2A00010",
                        "trialNum": 28,
                        "response": "probably no",
                        "responseCoded": -2
                    },
                    {
                        "rt": 1495,
                        "swatch": "BI2A00005",
                        "trialNum": 29,
                        "response": "probably yes",
                        "responseCoded": 2
                    },
                    {
                        "rt": 2335,
                        "swatch": "BI2A00037",
                        "trialNum": 30,
                        "response": "probably no",
                        "responseCoded": -2
                    },
                    {
                        "rt": 2843,
                        "swatch": "BI2A00012",
                        "trialNum": 31,
                        "response": "maybe yes",
                        "responseCoded": 1
                    },
                    {
                        "rt": 1667,
                        "swatch": "BI2A00016",
                        "trialNum": 32,
                        "response": "maybe yes",
                        "responseCoded": 1
                    },
                    {
                        "rt": 4545,
                        "swatch": "BI2A00020",
                        "trialNum": 33,
                        "response": "probably yes",
                        "responseCoded": 2
                    },
                    {
                        "rt": 2084,
                        "swatch": "BI2A00032",
                        "trialNum": 34,
                        "response": "probably no",
                        "responseCoded": -2
                    },
                    {
                        "rt": 969,
                        "swatch": "BI2A00033",
                        "trialNum": 35,
                        "response": "probably no",
                        "responseCoded": -2
                    },
                    {
                        "rt": 2145,
                        "swatch": "BI2A00047",
                        "trialNum": 36,
                        "response": "probably no",
                        "responseCoded": -2
                    },
                    {
                        "rt": 2639,
                        "swatch": "BI2A00002",
                        "trialNum": 37,
                        "response": "definitely yes",
                        "responseCoded": 3
                    },
                    {
                        "rt": 1468,
                        "swatch": "BI2A00003",
                        "trialNum": 38,
                        "response": "definitely yes",
                        "responseCoded": 3
                    },
                    {
                        "rt": 2058,
                        "swatch": "BI2A00048",
                        "trialNum": 39,
                        "response": "definitely no",
                        "responseCoded": 3
                    },
                    {
                        "rt": 2651,
                        "swatch": "BI2A00011",
                        "trialNum": 40,
                        "response": "definitely yes",
                        "responseCoded": 3
                    },
                    {
                        "rt": 3673,
                        "swatch": "BI2A00022",
                        "trialNum": 41,
                        "response": "maybe no",
                        "responseCoded": -1
                    },
                    {
                        "rt": 1871,
                        "swatch": "BI2A00040",
                        "trialNum": 42,
                        "response": "definitely no",
                        "responseCoded": 3
                    },
                    {
                        "rt": 1302,
                        "swatch": "BI2A00025",
                        "trialNum": 43,
                        "response": "definitely no",
                        "responseCoded": 3
                    },
                    {
                        "rt": 2224,
                        "swatch": "BI2A00013",
                        "trialNum": 44,
                        "response": "definitely yes",
                        "responseCoded": 3
                    },
                    {
                        "rt": 1827,
                        "swatch": "BI2A00041",
                        "trialNum": 45,
                        "response": "definitely no",
                        "responseCoded": 3
                    },
                    {
                        "rt": 1236,
                        "swatch": "BI2A00031",
                        "trialNum": 46,
                        "response": "definitely no",
                        "responseCoded": 3
                    },
                    {
                        "rt": 1166,
                        "swatch": "BI2A00038",
                        "trialNum": 47,
                        "response": "definitely no",
                        "responseCoded": 3
                    },
                    {
                        "rt": 1310,
                        "swatch": "BI2A00029",
                        "trialNum": 48,
                        "response": "definitely no",
                        "responseCoded": 3
                    }
                ],
                "gender": "male",
                "age": "28",
                "comments": "fun, thanks,",
                "religion": [
                    "christianity_protestant"
                ],
                "condition": "think",
                "fingerprintData": {
                    "ip": "24.243.174.132",
                    "screenHeight": 1050,
                    "plugins": [
                        {
                            "description": "The Google Earth Plugin allows you to view 3D imagery and terrain in your web browser.",
                            "filename": "Google Earth Web Plug-in.plugin"
                        },
                        {
                            "description": "Version 5.38.6.0",
                            "filename": "googletalkbrowserplugin.plugin"
                        },
                        {
                            "description": "Version 5.38.6.0",
                            "filename": "o1dbrowserplugin.plugin"
                        },
                        {
                            "description": "Displays Java applet content, or a placeholder if Java is not installed.",
                            "filename": "JavaAppletPlugin.plugin"
                        },
                        {
                            "description": "The QuickTime Plugin allows you to view a wide variety of multimedia content in web pages. For more information, visit the <A HREF=http://www.apple.com/quicktime>QuickTime</A> Web site.",
                            "filename": "QuickTime Plugin.plugin"
                        },
                        {
                            "description": "RealPlayer Plugin",
                            "filename": "RealPlayer Plugin.plugin"
                        },
                        {
                            "description": "Microsoft Office for Mac SharePoint Browser Plug-in",
                            "filename": "SharePointBrowserPlugin.plugin"
                        },
                        {
                            "description": "Shockwave Flash 16.0 r0",
                            "filename": "Flash Player.plugin"
                        },
                        {
                            "description": "5.1.10411.0",
                            "filename": "Silverlight.plugin"
                        },
                        {
                            "description": "Unity Web Player version 4.6.0f3. (c) 2014 Unity Technologies ApS. All rights reserved.",
                            "filename": "Unity Web Player.plugin"
                        },
                        {
                            "description": "",
                            "filename": "WacomNetscape.plugin"
                        },
                        {
                            "description": "Plugin for Wacom tablets.",
                            "filename": "WacomTabletPlugin.plugin"
                        },
                        {
                            "description": "iPhoto6",
                            "filename": "iPhotoPhotocast.plugin"
                        }
                    ],
                    "timezone": 360,
                    "colorDepth": 24,
                    "screenWidth": 1680,
                    "geo": {
                        "city": "Copperas Cove",
                        "region_code": "TX",
                        "region_name": "Texas",
                        "ip": "24.243.174.132",
                        "time_zone": "America/Chicago",
                        "longitude": -97.993,
                        "metro_code": 625,
                        "latitude": 31.2,
                        "country_code": "US",
                        "country_name": "United States",
                        "zip_code": "76522"
                    },
                    "browser": "Mozilla/5.0 (Macintosh; Intel Mac OS X 10.6; rv:36.0) Gecko/20100101 Firefox/36.0"
                },
                "ethnicity": [
                    "white"
                ]
            }
        }
    },
    "AcceptTime": "2015-03-03T10:57:58Z",
    "HITId": "39TX062QX1XDAW3RDVV42F2R1TJX3X",
    "Assignment": "",
    "AssignmentStatus": "Approved",
    "SubmitTime": "2015-03-03T11:02:24Z"
}