{
    "ApprovalTime": "2015-03-03T11:07:36Z",
    "AutoApprovalTime": "2015-03-03T11:04:38Z",
    "AssignmentId": "3UOUJI6MTENZVAE3IHW6E8OARJUXU3",
    "WorkerId": "A2XP2WMUDRJ9DH",
    "answers": {
        "data": {
            "trials": [],
            "condition": "animal",
            "allData": {
                "education": "hs_diploma",
                "englishNative": "yes_only",
                "trialData": [
                    {
                        "rt": 7447,
                        "swatch": "BI2A00016",
                        "trialNum": 1,
                        "response": "definitely no",
                        "responseCoded": 3
                    },
                    {
                        "rt": 3842,
                        "swatch": "BI2A00044",
                        "trialNum": 2,
                        "response": "definitely no",
                        "responseCoded": 3
                    },
                    {
                        "rt": 8355,
                        "swatch": "BI2A00010",
                        "trialNum": 3,
                        "response": "probably yes",
                        "responseCoded": 2
                    },
                    {
                        "rt": 9636,
                        "swatch": "BI2A00018",
                        "trialNum": 4,
                        "response": "probably no",
                        "responseCoded": -2
                    },
                    {
                        "rt": 8380,
                        "swatch": "BI2A00022",
                        "trialNum": 5,
                        "response": "maybe yes",
                        "responseCoded": 1
                    },
                    {
                        "rt": 6054,
                        "swatch": "BI2A00043",
                        "trialNum": 6,
                        "response": "probably no",
                        "responseCoded": -2
                    },
                    {
                        "rt": 5220,
                        "swatch": "BI2A00023",
                        "trialNum": 7,
                        "response": "probably yes",
                        "responseCoded": 2
                    },
                    {
                        "rt": 4412,
                        "swatch": "BI2A00046",
                        "trialNum": 8,
                        "response": "definitely no",
                        "responseCoded": 3
                    },
                    {
                        "rt": 5869,
                        "swatch": "BI2A00013",
                        "trialNum": 9,
                        "response": "probably yes",
                        "responseCoded": 2
                    },
                    {
                        "rt": 5270,
                        "swatch": "BI2A00042",
                        "trialNum": 10,
                        "response": "probably no",
                        "responseCoded": -2
                    },
                    {
                        "rt": 8223,
                        "swatch": "BI2A00014",
                        "trialNum": 11,
                        "response": "probably no",
                        "responseCoded": -2
                    },
                    {
                        "rt": 5378,
                        "swatch": "BI2A00021",
                        "trialNum": 12,
                        "response": "probably no",
                        "responseCoded": -2
                    },
                    {
                        "rt": 2637,
                        "swatch": "BI2A00035",
                        "trialNum": 13,
                        "response": "definitely no",
                        "responseCoded": 3
                    },
                    {
                        "rt": 2851,
                        "swatch": "BI2A00040",
                        "trialNum": 14,
                        "response": "definitely no",
                        "responseCoded": 3
                    },
                    {
                        "rt": 2568,
                        "swatch": "BI2A00027",
                        "trialNum": 15,
                        "response": "probably no",
                        "responseCoded": -2
                    },
                    {
                        "rt": 2369,
                        "swatch": "BI2A00017",
                        "trialNum": 16,
                        "response": "probably no",
                        "responseCoded": -2
                    },
                    {
                        "rt": 1723,
                        "swatch": "BI2A00030",
                        "trialNum": 17,
                        "response": "probably no",
                        "responseCoded": -2
                    },
                    {
                        "rt": 4660,
                        "swatch": "BI2A00002",
                        "trialNum": 18,
                        "response": "probably yes",
                        "responseCoded": 2
                    },
                    {
                        "rt": 2447,
                        "swatch": "BI2A00037",
                        "trialNum": 19,
                        "response": "definitely no",
                        "responseCoded": 3
                    },
                    {
                        "rt": 1876,
                        "swatch": "BI2A00033",
                        "trialNum": 20,
                        "response": "definitely no",
                        "responseCoded": 3
                    },
                    {
                        "rt": 2988,
                        "swatch": "BI2A00036",
                        "trialNum": 21,
                        "response": "definitely no",
                        "responseCoded": 3
                    },
                    {
                        "rt": 2708,
                        "swatch": "BI2A00005",
                        "trialNum": 22,
                        "response": "maybe yes",
                        "responseCoded": 1
                    },
                    {
                        "rt": 2126,
                        "swatch": "BI2A00019",
                        "trialNum": 23,
                        "response": "maybe yes",
                        "responseCoded": 1
                    },
                    {
                        "rt": 4202,
                        "swatch": "BI2A00024",
                        "trialNum": 24,
                        "response": "maybe no",
                        "responseCoded": -1
                    },
                    {
                        "rt": 3421,
                        "swatch": "BI2A00007",
                        "trialNum": 25,
                        "response": "probably yes",
                        "responseCoded": 2
                    },
                    {
                        "rt": 5820,
                        "swatch": "BI2A00020",
                        "trialNum": 26,
                        "response": "maybe yes",
                        "responseCoded": 1
                    },
                    {
                        "rt": 6283,
                        "swatch": "BI2A00045",
                        "trialNum": 27,
                        "response": "definitely no",
                        "responseCoded": 3
                    },
                    {
                        "rt": 3340,
                        "swatch": "BI2A00009",
                        "trialNum": 28,
                        "response": "maybe yes",
                        "responseCoded": 1
                    },
                    {
                        "rt": 3172,
                        "swatch": "BI2A00032",
                        "trialNum": 29,
                        "response": "probably no",
                        "responseCoded": -2
                    },
                    {
                        "rt": 6333,
                        "swatch": "BI2A00003",
                        "trialNum": 30,
                        "response": "probably yes",
                        "responseCoded": 2
                    },
                    {
                        "rt": 2391,
                        "swatch": "BI2A00029",
                        "trialNum": 31,
                        "response": "probably no",
                        "responseCoded": -2
                    },
                    {
                        "rt": 7141,
                        "swatch": "BI2A00041",
                        "trialNum": 32,
                        "response": "probably no",
                        "responseCoded": -2
                    },
                    {
                        "rt": 2747,
                        "swatch": "BI2A00004",
                        "trialNum": 33,
                        "response": "maybe yes",
                        "responseCoded": 1
                    },
                    {
                        "rt": 1711,
                        "swatch": "BI2A00031",
                        "trialNum": 34,
                        "response": "definitely no",
                        "responseCoded": 3
                    },
                    {
                        "rt": 2790,
                        "swatch": "BI2A00047",
                        "trialNum": 35,
                        "response": "definitely no",
                        "responseCoded": 3
                    },
                    {
                        "rt": 3587,
                        "swatch": "BI2A00015",
                        "trialNum": 36,
                        "response": "probably no",
                        "responseCoded": -2
                    },
                    {
                        "rt": 2670,
                        "swatch": "BI2A00034",
                        "trialNum": 37,
                        "response": "probably no",
                        "responseCoded": -2
                    },
                    {
                        "rt": 2548,
                        "swatch": "BI2A00026",
                        "trialNum": 38,
                        "response": "probably yes",
                        "responseCoded": 2
                    },
                    {
                        "rt": 1774,
                        "swatch": "BI2A00006",
                        "trialNum": 39,
                        "response": "probably yes",
                        "responseCoded": 2
                    },
                    {
                        "rt": 2314,
                        "swatch": "BI2A00028",
                        "trialNum": 40,
                        "response": "probably no",
                        "responseCoded": -2
                    },
                    {
                        "rt": 2654,
                        "swatch": "BI2A00039",
                        "trialNum": 41,
                        "response": "definitely no",
                        "responseCoded": 3
                    },
                    {
                        "rt": 5006,
                        "swatch": "BI2A00011",
                        "trialNum": 42,
                        "response": "definitely yes",
                        "responseCoded": 3
                    },
                    {
                        "rt": 2782,
                        "swatch": "BI2A00012",
                        "trialNum": 43,
                        "response": "probably yes",
                        "responseCoded": 2
                    },
                    {
                        "rt": 1193,
                        "swatch": "BI2A00001",
                        "trialNum": 44,
                        "response": "probably yes",
                        "responseCoded": 2
                    },
                    {
                        "rt": 3034,
                        "swatch": "BI2A00025",
                        "trialNum": 45,
                        "response": "probably no",
                        "responseCoded": -2
                    },
                    {
                        "rt": 1998,
                        "swatch": "BI2A00038",
                        "trialNum": 46,
                        "response": "definitely no",
                        "responseCoded": 3
                    },
                    {
                        "rt": 5030,
                        "swatch": "BI2A00008",
                        "trialNum": 47,
                        "response": "maybe yes",
                        "responseCoded": 1
                    },
                    {
                        "rt": 2485,
                        "swatch": "BI2A00048",
                        "trialNum": 48,
                        "response": "definitely no",
                        "responseCoded": 3
                    }
                ],
                "gender": "male",
                "age": "44",
                "comments": "",
                "religion": [
                    "christianity_other"
                ],
                "condition": "animal",
                "fingerprintData": {
                    "ip": "91.195.157.94",
                    "screenHeight": 768,
                    "plugins": [
                        {
                            "description": "Enables Widevine licenses for playback of HTML audio/video content. (version: 1.4.6.758)",
                            "filename": "widevinecdmadapter.dll"
                        },
                        {
                            "description": "Shockwave Flash 16.0 r0",
                            "filename": "pepflashplayer.dll"
                        },
                        {
                            "description": "This plugin allows you to securely access other computers that have been shared with you. To use this plugin you must first install the <a href=\"https://chrome.google.com/remotedesktop\">Chrome Remote Desktop</a> webapp.",
                            "filename": "internal-remoting-viewer"
                        },
                        {
                            "description": "",
                            "filename": "internal-nacl-plugin"
                        },
                        {
                            "description": "",
                            "filename": "pdf.dll"
                        },
                        {
                            "description": "Google Update",
                            "filename": "npGoogleUpdate3.dll"
                        },
                        {
                            "description": "Inquisit Mozilla Plugin 3.0.6.0",
                            "filename": "npInquisit_3060.dll"
                        },
                        {
                            "description": "WildTangent Games App V2 Presence Detector",
                            "filename": "NP_wtapp.dll"
                        },
                        {
                            "description": "NPWLPG",
                            "filename": "NPWLPG.dll"
                        },
                        {
                            "description": "The plugin allows you to have a better experience with Microsoft SharePoint",
                            "filename": "NPSPWRAP.DLL"
                        },
                        {
                            "description": "Unity Player 4.3.5f1",
                            "filename": "npUnity3D32.dll"
                        },
                        {
                            "description": "Facebook Video Calling Plugin",
                            "filename": "npFacebookVideoCalling.dll"
                        },
                        {
                            "description": "Inquisit Mozilla Plugin 4.0.8.0",
                            "filename": "npInquisit.dll"
                        },
                        {
                            "description": "Adobe Shockwave for Director Netscape plug-in, version 12.0.4.144",
                            "filename": "np32dsw_1204144.dll"
                        }
                    ],
                    "timezone": -120,
                    "colorDepth": 24,
                    "screenWidth": 1366,
                    "geo": {
                        "city": "",
                        "region_code": "",
                        "region_name": "",
                        "ip": "91.195.157.94",
                        "time_zone": "",
                        "longitude": 30.523,
                        "metro_code": 0,
                        "latitude": 50.45,
                        "country_code": "UA",
                        "country_name": "Ukraine",
                        "zip_code": ""
                    },
                    "browser": "Mozilla/5.0 (Windows NT 6.3; WOW64) AppleWebKit/537.36 (KHTML, like Gecko) Chrome/40.0.2214.115 Safari/537.36"
                },
                "ethnicity": [
                    "white"
                ]
            }
        }
    },
    "AcceptTime": "2015-03-03T10:51:54Z",
    "HITId": "39TX062QX1XDAW3RDVV42F2R1TJX3X",
    "Assignment": "",
    "AssignmentStatus": "Approved",
    "SubmitTime": "2015-03-03T10:59:38Z"
}