{
    "ApprovalTime": "2015-03-03T11:02:36Z",
    "AutoApprovalTime": "2015-03-03T11:00:03Z",
    "AssignmentId": "3W2LOLRXLCO1VINFF4MCJ3TOOBBKRX",
    "WorkerId": "A2YCMT5BPA0AG9",
    "answers": {
        "data": {
            "trials": [],
            "condition": "feelings",
            "allData": {
                "education": "college_assocDegree",
                "englishNative": "yes_only",
                "trialData": [
                    {
                        "rt": 8259,
                        "swatch": "BI2A00009",
                        "trialNum": 1,
                        "response": "equally yes/no",
                        "responseCoded": 0
                    },
                    {
                        "rt": 3808,
                        "swatch": "BI2A00025",
                        "trialNum": 2,
                        "response": "maybe yes",
                        "responseCoded": 1
                    },
                    {
                        "rt": 1684,
                        "swatch": "BI2A00033",
                        "trialNum": 3,
                        "response": "maybe yes",
                        "responseCoded": 1
                    },
                    {
                        "rt": 3364,
                        "swatch": "BI2A00041",
                        "trialNum": 4,
                        "response": "maybe no",
                        "responseCoded": -1
                    },
                    {
                        "rt": 1356,
                        "swatch": "BI2A00030",
                        "trialNum": 5,
                        "response": "maybe no",
                        "responseCoded": -1
                    },
                    {
                        "rt": 2508,
                        "swatch": "BI2A00001",
                        "trialNum": 6,
                        "response": "probably no",
                        "responseCoded": -2
                    },
                    {
                        "rt": 11054,
                        "swatch": "BI2A00014",
                        "trialNum": 7,
                        "response": "probably no",
                        "responseCoded": -2
                    },
                    {
                        "rt": 17549,
                        "swatch": "BI2A00047",
                        "trialNum": 8,
                        "response": "probably no",
                        "responseCoded": -2
                    },
                    {
                        "rt": 2793,
                        "swatch": "BI2A00023",
                        "trialNum": 9,
                        "response": "maybe yes",
                        "responseCoded": 1
                    },
                    {
                        "rt": 2019,
                        "swatch": "BI2A00031",
                        "trialNum": 10,
                        "response": "probably no",
                        "responseCoded": -2
                    },
                    {
                        "rt": 2165,
                        "swatch": "BI2A00024",
                        "trialNum": 11,
                        "response": "probably yes",
                        "responseCoded": 2
                    },
                    {
                        "rt": 1524,
                        "swatch": "BI2A00016",
                        "trialNum": 12,
                        "response": "maybe yes",
                        "responseCoded": 1
                    },
                    {
                        "rt": 2235,
                        "swatch": "BI2A00045",
                        "trialNum": 13,
                        "response": "maybe yes",
                        "responseCoded": 1
                    },
                    {
                        "rt": 1205,
                        "swatch": "BI2A00037",
                        "trialNum": 14,
                        "response": "maybe yes",
                        "responseCoded": 1
                    },
                    {
                        "rt": 1325,
                        "swatch": "BI2A00013",
                        "trialNum": 15,
                        "response": "maybe yes",
                        "responseCoded": 1
                    },
                    {
                        "rt": 1269,
                        "swatch": "BI2A00029",
                        "trialNum": 16,
                        "response": "maybe yes",
                        "responseCoded": 1
                    },
                    {
                        "rt": 2956,
                        "swatch": "BI2A00021",
                        "trialNum": 17,
                        "response": "equally yes/no",
                        "responseCoded": 0
                    },
                    {
                        "rt": 1659,
                        "swatch": "BI2A00040",
                        "trialNum": 18,
                        "response": "maybe no",
                        "responseCoded": -1
                    },
                    {
                        "rt": 1467,
                        "swatch": "BI2A00022",
                        "trialNum": 19,
                        "response": "maybe no",
                        "responseCoded": -1
                    },
                    {
                        "rt": 1779,
                        "swatch": "BI2A00027",
                        "trialNum": 20,
                        "response": "maybe yes",
                        "responseCoded": 1
                    },
                    {
                        "rt": 2429,
                        "swatch": "BI2A00038",
                        "trialNum": 21,
                        "response": "maybe yes",
                        "responseCoded": 1
                    },
                    {
                        "rt": 1197,
                        "swatch": "BI2A00034",
                        "trialNum": 22,
                        "response": "probably yes",
                        "responseCoded": 2
                    },
                    {
                        "rt": 1677,
                        "swatch": "BI2A00028",
                        "trialNum": 23,
                        "response": "maybe yes",
                        "responseCoded": 1
                    },
                    {
                        "rt": 5773,
                        "swatch": "BI2A00012",
                        "trialNum": 24,
                        "response": "probably yes",
                        "responseCoded": 2
                    },
                    {
                        "rt": 1284,
                        "swatch": "BI2A00002",
                        "trialNum": 25,
                        "response": "definitely yes",
                        "responseCoded": 3
                    },
                    {
                        "rt": 3781,
                        "swatch": "BI2A00039",
                        "trialNum": 26,
                        "response": "probably yes",
                        "responseCoded": 2
                    },
                    {
                        "rt": 1213,
                        "swatch": "BI2A00020",
                        "trialNum": 27,
                        "response": "definitely yes",
                        "responseCoded": 3
                    },
                    {
                        "rt": 2109,
                        "swatch": "BI2A00044",
                        "trialNum": 28,
                        "response": "maybe no",
                        "responseCoded": -1
                    },
                    {
                        "rt": 1981,
                        "swatch": "BI2A00007",
                        "trialNum": 29,
                        "response": "definitely yes",
                        "responseCoded": 3
                    },
                    {
                        "rt": 1869,
                        "swatch": "BI2A00043",
                        "trialNum": 30,
                        "response": "maybe yes",
                        "responseCoded": 1
                    },
                    {
                        "rt": 1518,
                        "swatch": "BI2A00032",
                        "trialNum": 31,
                        "response": "maybe no",
                        "responseCoded": -1
                    },
                    {
                        "rt": 2452,
                        "swatch": "BI2A00042",
                        "trialNum": 32,
                        "response": "maybe yes",
                        "responseCoded": 1
                    },
                    {
                        "rt": 1140,
                        "swatch": "BI2A00017",
                        "trialNum": 33,
                        "response": "maybe yes",
                        "responseCoded": 1
                    },
                    {
                        "rt": 1886,
                        "swatch": "BI2A00010",
                        "trialNum": 34,
                        "response": "maybe no",
                        "responseCoded": -1
                    },
                    {
                        "rt": 1146,
                        "swatch": "BI2A00036",
                        "trialNum": 35,
                        "response": "maybe no",
                        "responseCoded": -1
                    },
                    {
                        "rt": 1261,
                        "swatch": "BI2A00011",
                        "trialNum": 36,
                        "response": "probably no",
                        "responseCoded": -2
                    },
                    {
                        "rt": 1469,
                        "swatch": "BI2A00048",
                        "trialNum": 37,
                        "response": "definitely no",
                        "responseCoded": 3
                    },
                    {
                        "rt": 1786,
                        "swatch": "BI2A00035",
                        "trialNum": 38,
                        "response": "maybe yes",
                        "responseCoded": 1
                    },
                    {
                        "rt": 1405,
                        "swatch": "BI2A00003",
                        "trialNum": 39,
                        "response": "probably yes",
                        "responseCoded": 2
                    },
                    {
                        "rt": 1253,
                        "swatch": "BI2A00006",
                        "trialNum": 40,
                        "response": "definitely yes",
                        "responseCoded": 3
                    },
                    {
                        "rt": 1213,
                        "swatch": "BI2A00026",
                        "trialNum": 41,
                        "response": "probably yes",
                        "responseCoded": 2
                    },
                    {
                        "rt": 2765,
                        "swatch": "BI2A00046",
                        "trialNum": 42,
                        "response": "equally yes/no",
                        "responseCoded": 0
                    },
                    {
                        "rt": 2774,
                        "swatch": "BI2A00018",
                        "trialNum": 43,
                        "response": "maybe no",
                        "responseCoded": -1
                    },
                    {
                        "rt": 1205,
                        "swatch": "BI2A00005",
                        "trialNum": 44,
                        "response": "definitely yes",
                        "responseCoded": 3
                    },
                    {
                        "rt": 1725,
                        "swatch": "BI2A00004",
                        "trialNum": 45,
                        "response": "maybe yes",
                        "responseCoded": 1
                    },
                    {
                        "rt": 1358,
                        "swatch": "BI2A00019",
                        "trialNum": 46,
                        "response": "probably yes",
                        "responseCoded": 2
                    },
                    {
                        "rt": 2070,
                        "swatch": "BI2A00015",
                        "trialNum": 47,
                        "response": "equally yes/no",
                        "responseCoded": 0
                    },
                    {
                        "rt": 1294,
                        "swatch": "BI2A00008",
                        "trialNum": 48,
                        "response": "maybe yes",
                        "responseCoded": 1
                    }
                ],
                "gender": "male",
                "age": "55",
                "comments": "",
                "religion": [
                    "none"
                ],
                "condition": "feelings",
                "fingerprintData": {},
                "ethnicity": [
                    "white"
                ]
            }
        }
    },
    "AcceptTime": "2015-03-03T10:45:41Z",
    "HITId": "39TX062QX1XDAW3RDVV42F2R1TJX3X",
    "Assignment": "",
    "AssignmentStatus": "Approved",
    "SubmitTime": "2015-03-03T10:55:03Z"
}