{
    "ApprovalTime": "2015-03-03T11:07:36Z",
    "AutoApprovalTime": "2015-03-03T11:07:12Z",
    "AssignmentId": "3WEV0KO0ON15IRHI2C0U503UQ5YDS4",
    "WorkerId": "A3KX2D8LETH2KB",
    "answers": {
        "data": {
            "trials": [],
            "condition": "hungry",
            "allData": {
                "education": "college_some",
                "englishNative": "yes_only",
                "trialData": [
                    {
                        "rt": 12025,
                        "swatch": "BI2A00004",
                        "trialNum": 1,
                        "response": "probably yes",
                        "responseCoded": 2
                    },
                    {
                        "rt": 9724,
                        "swatch": "BI2A00023",
                        "trialNum": 2,
                        "response": "probably no",
                        "responseCoded": -2
                    },
                    {
                        "rt": 4501,
                        "swatch": "BI2A00042",
                        "trialNum": 3,
                        "response": "probably no",
                        "responseCoded": -2
                    },
                    {
                        "rt": 5534,
                        "swatch": "BI2A00011",
                        "trialNum": 4,
                        "response": "maybe yes",
                        "responseCoded": 1
                    },
                    {
                        "rt": 2403,
                        "swatch": "BI2A00045",
                        "trialNum": 5,
                        "response": "maybe no",
                        "responseCoded": -1
                    },
                    {
                        "rt": 2247,
                        "swatch": "BI2A00018",
                        "trialNum": 6,
                        "response": "probably no",
                        "responseCoded": -2
                    },
                    {
                        "rt": 2138,
                        "swatch": "BI2A00030",
                        "trialNum": 7,
                        "response": "probably no",
                        "responseCoded": -2
                    },
                    {
                        "rt": 1945,
                        "swatch": "BI2A00012",
                        "trialNum": 8,
                        "response": "probably no",
                        "responseCoded": -2
                    },
                    {
                        "rt": 1623,
                        "swatch": "BI2A00044",
                        "trialNum": 9,
                        "response": "probably no",
                        "responseCoded": -2
                    },
                    {
                        "rt": 1798,
                        "swatch": "BI2A00037",
                        "trialNum": 10,
                        "response": "probably no",
                        "responseCoded": -2
                    },
                    {
                        "rt": 1940,
                        "swatch": "BI2A00020",
                        "trialNum": 11,
                        "response": "probably no",
                        "responseCoded": -2
                    },
                    {
                        "rt": 2893,
                        "swatch": "BI2A00041",
                        "trialNum": 12,
                        "response": "definitely no",
                        "responseCoded": 3
                    },
                    {
                        "rt": 2545,
                        "swatch": "BI2A00026",
                        "trialNum": 13,
                        "response": "maybe no",
                        "responseCoded": -1
                    },
                    {
                        "rt": 2086,
                        "swatch": "BI2A00010",
                        "trialNum": 14,
                        "response": "maybe no",
                        "responseCoded": -1
                    },
                    {
                        "rt": 2024,
                        "swatch": "BI2A00038",
                        "trialNum": 15,
                        "response": "probably no",
                        "responseCoded": -2
                    },
                    {
                        "rt": 1682,
                        "swatch": "BI2A00017",
                        "trialNum": 16,
                        "response": "probably no",
                        "responseCoded": -2
                    },
                    {
                        "rt": 1726,
                        "swatch": "BI2A00008",
                        "trialNum": 17,
                        "response": "probably no",
                        "responseCoded": -2
                    },
                    {
                        "rt": 2549,
                        "swatch": "BI2A00048",
                        "trialNum": 18,
                        "response": "probably no",
                        "responseCoded": -2
                    },
                    {
                        "rt": 1648,
                        "swatch": "BI2A00014",
                        "trialNum": 19,
                        "response": "probably no",
                        "responseCoded": -2
                    },
                    {
                        "rt": 2176,
                        "swatch": "BI2A00002",
                        "trialNum": 20,
                        "response": "probably no",
                        "responseCoded": -2
                    },
                    {
                        "rt": 4960,
                        "swatch": "BI2A00034",
                        "trialNum": 21,
                        "response": "probably no",
                        "responseCoded": -2
                    },
                    {
                        "rt": 2522,
                        "swatch": "BI2A00035",
                        "trialNum": 22,
                        "response": "probably no",
                        "responseCoded": -2
                    },
                    {
                        "rt": 1425,
                        "swatch": "BI2A00027",
                        "trialNum": 23,
                        "response": "probably no",
                        "responseCoded": -2
                    },
                    {
                        "rt": 2965,
                        "swatch": "BI2A00003",
                        "trialNum": 24,
                        "response": "probably yes",
                        "responseCoded": 2
                    },
                    {
                        "rt": 3227,
                        "swatch": "BI2A00025",
                        "trialNum": 25,
                        "response": "equally yes/no",
                        "responseCoded": 0
                    },
                    {
                        "rt": 2916,
                        "swatch": "BI2A00024",
                        "trialNum": 26,
                        "response": "maybe yes",
                        "responseCoded": 1
                    },
                    {
                        "rt": 4186,
                        "swatch": "BI2A00013",
                        "trialNum": 27,
                        "response": "maybe no",
                        "responseCoded": -1
                    },
                    {
                        "rt": 1395,
                        "swatch": "BI2A00036",
                        "trialNum": 28,
                        "response": "maybe no",
                        "responseCoded": -1
                    },
                    {
                        "rt": 9321,
                        "swatch": "BI2A00005",
                        "trialNum": 29,
                        "response": "maybe yes",
                        "responseCoded": 1
                    },
                    {
                        "rt": 3986,
                        "swatch": "BI2A00028",
                        "trialNum": 30,
                        "response": "maybe no",
                        "responseCoded": -1
                    },
                    {
                        "rt": 2179,
                        "swatch": "BI2A00039",
                        "trialNum": 31,
                        "response": "probably no",
                        "responseCoded": -2
                    },
                    {
                        "rt": 6548,
                        "swatch": "BI2A00022",
                        "trialNum": 32,
                        "response": "probably no",
                        "responseCoded": -2
                    },
                    {
                        "rt": 4247,
                        "swatch": "BI2A00019",
                        "trialNum": 33,
                        "response": "maybe yes",
                        "responseCoded": 1
                    },
                    {
                        "rt": 9220,
                        "swatch": "BI2A00033",
                        "trialNum": 34,
                        "response": "probably no",
                        "responseCoded": -2
                    },
                    {
                        "rt": 2710,
                        "swatch": "BI2A00016",
                        "trialNum": 35,
                        "response": "maybe no",
                        "responseCoded": -1
                    },
                    {
                        "rt": 1928,
                        "swatch": "BI2A00046",
                        "trialNum": 36,
                        "response": "maybe no",
                        "responseCoded": -1
                    },
                    {
                        "rt": 2575,
                        "swatch": "BI2A00007",
                        "trialNum": 37,
                        "response": "maybe yes",
                        "responseCoded": 1
                    },
                    {
                        "rt": 2886,
                        "swatch": "BI2A00021",
                        "trialNum": 38,
                        "response": "probably no",
                        "responseCoded": -2
                    },
                    {
                        "rt": 2022,
                        "swatch": "BI2A00047",
                        "trialNum": 39,
                        "response": "probably no",
                        "responseCoded": -2
                    },
                    {
                        "rt": 1790,
                        "swatch": "BI2A00031",
                        "trialNum": 40,
                        "response": "probably no",
                        "responseCoded": -2
                    },
                    {
                        "rt": 1482,
                        "swatch": "BI2A00029",
                        "trialNum": 41,
                        "response": "probably no",
                        "responseCoded": -2
                    },
                    {
                        "rt": 11574,
                        "swatch": "BI2A00040",
                        "trialNum": 42,
                        "response": "probably no",
                        "responseCoded": -2
                    },
                    {
                        "rt": 5123,
                        "swatch": "BI2A00009",
                        "trialNum": 43,
                        "response": "maybe yes",
                        "responseCoded": 1
                    },
                    {
                        "rt": 2913,
                        "swatch": "BI2A00043",
                        "trialNum": 44,
                        "response": "probably no",
                        "responseCoded": -2
                    },
                    {
                        "rt": 4034,
                        "swatch": "BI2A00015",
                        "trialNum": 45,
                        "response": "equally yes/no",
                        "responseCoded": 0
                    },
                    {
                        "rt": 2806,
                        "swatch": "BI2A00032",
                        "trialNum": 46,
                        "response": "probably no",
                        "responseCoded": -2
                    },
                    {
                        "rt": 24745,
                        "swatch": "BI2A00006",
                        "trialNum": 47,
                        "response": "maybe no",
                        "responseCoded": -1
                    },
                    {
                        "rt": 20641,
                        "swatch": "BI2A00001",
                        "trialNum": 48,
                        "response": "probably yes",
                        "responseCoded": 2
                    }
                ],
                "gender": "male",
                "age": "36",
                "comments": "none at this time",
                "religion": [
                    "christianity_catholic"
                ],
                "condition": "hungry",
                "fingerprintData": {
                    "ip": "198.49.68.93",
                    "screenHeight": 768,
                    "plugins": [
                        {
                            "description": "Google Update",
                            "filename": "npGoogleUpdate3.dll"
                        },
                        {
                            "description": "NPRuntime Script Plug-in Library for Java(TM) Deploy",
                            "filename": "npdeployJava1.dll"
                        },
                        {
                            "description": "Next Generation Java Plug-in 11.31.2 for Mozilla browsers",
                            "filename": "npjp2.dll"
                        },
                        {
                            "description": "NPWLPG",
                            "filename": "NPWLPG.dll"
                        },
                        {
                            "description": "Shockwave Flash 16.0 r0",
                            "filename": "NPSWF32_16_0_0_305.dll"
                        },
                        {
                            "description": "Adobe Shockwave for Director Netscape plug-in, version 12.1.6.156",
                            "filename": "np32dsw_1216156.dll"
                        },
                        {
                            "description": "VLC media player Web Plugin 2.1.3",
                            "filename": "npvlc.dll"
                        },
                        {
                            "description": "WildTangent Games App V2 Presence Detector",
                            "filename": "NP_wtapp.dll"
                        }
                    ],
                    "timezone": -480,
                    "colorDepth": 24,
                    "screenWidth": 1366,
                    "geo": {
                        "city": "Orlando",
                        "region_code": "FL",
                        "region_name": "Florida",
                        "ip": "198.49.68.93",
                        "time_zone": "America/New_York",
                        "longitude": -81.38,
                        "metro_code": 534,
                        "latitude": 28.538,
                        "country_code": "US",
                        "country_name": "United States",
                        "zip_code": "32801"
                    },
                    "browser": "Mozilla/5.0 (Windows NT 6.3; WOW64; rv:35.0) Gecko/20100101 Firefox/35.0"
                },
                "ethnicity": [
                    "white"
                ]
            }
        }
    },
    "AcceptTime": "2015-03-03T10:53:58Z",
    "HITId": "39TX062QX1XDAW3RDVV42F2R1TJX3X",
    "Assignment": "",
    "AssignmentStatus": "Approved",
    "SubmitTime": "2015-03-03T11:02:12Z"
}