{
    "ApprovalTime": "2015-03-03T11:22:37Z",
    "AutoApprovalTime": "2015-03-03T11:20:33Z",
    "AssignmentId": "3Y4W8Q93L0TLAJYMW75ZGNN1P9SDV9",
    "WorkerId": "A1QUNP6IYOQMZ5",
    "answers": {
        "data": {
            "trials": [],
            "condition": "think",
            "allData": {
                "education": "hs_diploma",
                "englishNative": "yes_only",
                "trialData": [
                    {
                        "rt": 12664,
                        "swatch": "BI2A00043",
                        "trialNum": 1,
                        "response": "maybe no",
                        "responseCoded": -1
                    },
                    {
                        "rt": 1968,
                        "swatch": "BI2A00013",
                        "trialNum": 2,
                        "response": "maybe yes",
                        "responseCoded": 1
                    },
                    {
                        "rt": 1051,
                        "swatch": "BI2A00028",
                        "trialNum": 3,
                        "response": "maybe yes",
                        "responseCoded": 1
                    },
                    {
                        "rt": 2639,
                        "swatch": "BI2A00031",
                        "trialNum": 4,
                        "response": "definitely no",
                        "responseCoded": 3
                    },
                    {
                        "rt": 2671,
                        "swatch": "BI2A00018",
                        "trialNum": 5,
                        "response": "maybe yes",
                        "responseCoded": 1
                    },
                    {
                        "rt": 2158,
                        "swatch": "BI2A00030",
                        "trialNum": 6,
                        "response": "maybe no",
                        "responseCoded": -1
                    },
                    {
                        "rt": 1998,
                        "swatch": "BI2A00011",
                        "trialNum": 7,
                        "response": "maybe yes",
                        "responseCoded": 1
                    },
                    {
                        "rt": 2091,
                        "swatch": "BI2A00041",
                        "trialNum": 8,
                        "response": "definitely no",
                        "responseCoded": 3
                    },
                    {
                        "rt": 1534,
                        "swatch": "BI2A00048",
                        "trialNum": 9,
                        "response": "definitely no",
                        "responseCoded": 3
                    },
                    {
                        "rt": 3071,
                        "swatch": "BI2A00021",
                        "trialNum": 10,
                        "response": "maybe yes",
                        "responseCoded": 1
                    },
                    {
                        "rt": 1690,
                        "swatch": "BI2A00042",
                        "trialNum": 11,
                        "response": "maybe no",
                        "responseCoded": -1
                    },
                    {
                        "rt": 2949,
                        "swatch": "BI2A00020",
                        "trialNum": 12,
                        "response": "probably yes",
                        "responseCoded": 2
                    },
                    {
                        "rt": 1982,
                        "swatch": "BI2A00045",
                        "trialNum": 13,
                        "response": "maybe yes",
                        "responseCoded": 1
                    },
                    {
                        "rt": 2406,
                        "swatch": "BI2A00027",
                        "trialNum": 14,
                        "response": "definitely no",
                        "responseCoded": 3
                    },
                    {
                        "rt": 2440,
                        "swatch": "BI2A00038",
                        "trialNum": 15,
                        "response": "equally yes/no",
                        "responseCoded": 0
                    },
                    {
                        "rt": 2724,
                        "swatch": "BI2A00047",
                        "trialNum": 16,
                        "response": "definitely yes",
                        "responseCoded": 3
                    },
                    {
                        "rt": 2174,
                        "swatch": "BI2A00015",
                        "trialNum": 17,
                        "response": "probably yes",
                        "responseCoded": 2
                    },
                    {
                        "rt": 1993,
                        "swatch": "BI2A00040",
                        "trialNum": 18,
                        "response": "maybe no",
                        "responseCoded": -1
                    },
                    {
                        "rt": 1645,
                        "swatch": "BI2A00007",
                        "trialNum": 19,
                        "response": "maybe yes",
                        "responseCoded": 1
                    },
                    {
                        "rt": 2022,
                        "swatch": "BI2A00044",
                        "trialNum": 20,
                        "response": "definitely no",
                        "responseCoded": 3
                    },
                    {
                        "rt": 2328,
                        "swatch": "BI2A00006",
                        "trialNum": 21,
                        "response": "definitely yes",
                        "responseCoded": 3
                    },
                    {
                        "rt": 1508,
                        "swatch": "BI2A00032",
                        "trialNum": 22,
                        "response": "equally yes/no",
                        "responseCoded": 0
                    },
                    {
                        "rt": 1887,
                        "swatch": "BI2A00012",
                        "trialNum": 23,
                        "response": "maybe yes",
                        "responseCoded": 1
                    },
                    {
                        "rt": 919,
                        "swatch": "BI2A00003",
                        "trialNum": 24,
                        "response": "maybe yes",
                        "responseCoded": 1
                    },
                    {
                        "rt": 2054,
                        "swatch": "BI2A00002",
                        "trialNum": 25,
                        "response": "definitely yes",
                        "responseCoded": 3
                    },
                    {
                        "rt": 1717,
                        "swatch": "BI2A00017",
                        "trialNum": 26,
                        "response": "maybe no",
                        "responseCoded": -1
                    },
                    {
                        "rt": 2381,
                        "swatch": "BI2A00005",
                        "trialNum": 27,
                        "response": "definitely yes",
                        "responseCoded": 3
                    },
                    {
                        "rt": 2710,
                        "swatch": "BI2A00039",
                        "trialNum": 28,
                        "response": "definitely yes",
                        "responseCoded": 3
                    },
                    {
                        "rt": 1086,
                        "swatch": "BI2A00008",
                        "trialNum": 29,
                        "response": "definitely yes",
                        "responseCoded": 3
                    },
                    {
                        "rt": 2392,
                        "swatch": "BI2A00029",
                        "trialNum": 30,
                        "response": "equally yes/no",
                        "responseCoded": 0
                    },
                    {
                        "rt": 1343,
                        "swatch": "BI2A00009",
                        "trialNum": 31,
                        "response": "maybe yes",
                        "responseCoded": 1
                    },
                    {
                        "rt": 2367,
                        "swatch": "BI2A00025",
                        "trialNum": 32,
                        "response": "probably yes",
                        "responseCoded": 2
                    },
                    {
                        "rt": 2095,
                        "swatch": "BI2A00034",
                        "trialNum": 33,
                        "response": "equally yes/no",
                        "responseCoded": 0
                    },
                    {
                        "rt": 2166,
                        "swatch": "BI2A00037",
                        "trialNum": 34,
                        "response": "probably no",
                        "responseCoded": -2
                    },
                    {
                        "rt": 1186,
                        "swatch": "BI2A00010",
                        "trialNum": 35,
                        "response": "probably no",
                        "responseCoded": -2
                    },
                    {
                        "rt": 1415,
                        "swatch": "BI2A00019",
                        "trialNum": 36,
                        "response": "probably yes",
                        "responseCoded": 2
                    },
                    {
                        "rt": 2300,
                        "swatch": "BI2A00033",
                        "trialNum": 37,
                        "response": "maybe no",
                        "responseCoded": -1
                    },
                    {
                        "rt": 1695,
                        "swatch": "BI2A00004",
                        "trialNum": 38,
                        "response": "definitely yes",
                        "responseCoded": 3
                    },
                    {
                        "rt": 1078,
                        "swatch": "BI2A00026",
                        "trialNum": 39,
                        "response": "definitely yes",
                        "responseCoded": 3
                    },
                    {
                        "rt": 744,
                        "swatch": "BI2A00014",
                        "trialNum": 40,
                        "response": "definitely yes",
                        "responseCoded": 3
                    },
                    {
                        "rt": 3520,
                        "swatch": "BI2A00036",
                        "trialNum": 41,
                        "response": "definitely no",
                        "responseCoded": 3
                    },
                    {
                        "rt": 1318,
                        "swatch": "BI2A00016",
                        "trialNum": 42,
                        "response": "definitely no",
                        "responseCoded": 3
                    },
                    {
                        "rt": 2568,
                        "swatch": "BI2A00024",
                        "trialNum": 43,
                        "response": "maybe yes",
                        "responseCoded": 1
                    },
                    {
                        "rt": 2103,
                        "swatch": "BI2A00046",
                        "trialNum": 44,
                        "response": "maybe no",
                        "responseCoded": -1
                    },
                    {
                        "rt": 1868,
                        "swatch": "BI2A00022",
                        "trialNum": 45,
                        "response": "probably no",
                        "responseCoded": -2
                    },
                    {
                        "rt": 1746,
                        "swatch": "BI2A00035",
                        "trialNum": 46,
                        "response": "definitely no",
                        "responseCoded": 3
                    },
                    {
                        "rt": 1624,
                        "swatch": "BI2A00023",
                        "trialNum": 47,
                        "response": "equally yes/no",
                        "responseCoded": 0
                    },
                    {
                        "rt": 2415,
                        "swatch": "BI2A00001",
                        "trialNum": 48,
                        "response": "probably yes",
                        "responseCoded": 2
                    }
                ],
                "gender": "female",
                "age": "31",
                "comments": "-",
                "religion": [
                    "christianity_protestant"
                ],
                "condition": "think",
                "fingerprintData": {},
                "ethnicity": [
                    "white"
                ]
            }
        }
    },
    "AcceptTime": "2015-03-03T11:00:53Z",
    "HITId": "39TX062QX1XDAW3RDVV42F2R1TJX3X",
    "Assignment": "",
    "AssignmentStatus": "Approved",
    "SubmitTime": "2015-03-03T11:15:33Z"
}