{
    "ApprovalTime": "2015-03-03T11:22:37Z",
    "AutoApprovalTime": "2015-03-03T11:18:17Z",
    "AssignmentId": "3YHH42UU5COOFULY6RFYE75G4LGL02",
    "WorkerId": "A2UNQAI5MDCKYG",
    "answers": {
        "data": {
            "trials": [],
            "condition": "animal",
            "allData": {
                "education": "college_bachDegree",
                "englishNative": "no",
                "trialData": [
                    {
                        "rt": 8064,
                        "swatch": "BI2A00012",
                        "trialNum": 1,
                        "response": "probably no",
                        "responseCoded": -2
                    },
                    {
                        "rt": 6984,
                        "swatch": "BI2A00032",
                        "trialNum": 2,
                        "response": "maybe no",
                        "responseCoded": -1
                    },
                    {
                        "rt": 3802,
                        "swatch": "BI2A00001",
                        "trialNum": 3,
                        "response": "maybe yes",
                        "responseCoded": 1
                    },
                    {
                        "rt": 3921,
                        "swatch": "BI2A00043",
                        "trialNum": 4,
                        "response": "definitely no",
                        "responseCoded": 3
                    },
                    {
                        "rt": 3293,
                        "swatch": "BI2A00006",
                        "trialNum": 5,
                        "response": "probably no",
                        "responseCoded": -2
                    },
                    {
                        "rt": 3693,
                        "swatch": "BI2A00018",
                        "trialNum": 6,
                        "response": "maybe yes",
                        "responseCoded": 1
                    },
                    {
                        "rt": 2384,
                        "swatch": "BI2A00007",
                        "trialNum": 7,
                        "response": "maybe yes",
                        "responseCoded": 1
                    },
                    {
                        "rt": 1753,
                        "swatch": "BI2A00015",
                        "trialNum": 8,
                        "response": "maybe yes",
                        "responseCoded": 1
                    },
                    {
                        "rt": 2204,
                        "swatch": "BI2A00013",
                        "trialNum": 9,
                        "response": "probably yes",
                        "responseCoded": 2
                    },
                    {
                        "rt": 2136,
                        "swatch": "BI2A00030",
                        "trialNum": 10,
                        "response": "probably no",
                        "responseCoded": -2
                    },
                    {
                        "rt": 3199,
                        "swatch": "BI2A00016",
                        "trialNum": 11,
                        "response": "maybe yes",
                        "responseCoded": 1
                    },
                    {
                        "rt": 2731,
                        "swatch": "BI2A00004",
                        "trialNum": 12,
                        "response": "maybe yes",
                        "responseCoded": 1
                    },
                    {
                        "rt": 3798,
                        "swatch": "BI2A00028",
                        "trialNum": 13,
                        "response": "maybe no",
                        "responseCoded": -1
                    },
                    {
                        "rt": 2833,
                        "swatch": "BI2A00042",
                        "trialNum": 14,
                        "response": "definitely no",
                        "responseCoded": 3
                    },
                    {
                        "rt": 1665,
                        "swatch": "BI2A00003",
                        "trialNum": 15,
                        "response": "maybe yes",
                        "responseCoded": 1
                    },
                    {
                        "rt": 4337,
                        "swatch": "BI2A00025",
                        "trialNum": 16,
                        "response": "definitely no",
                        "responseCoded": 3
                    },
                    {
                        "rt": 3819,
                        "swatch": "BI2A00009",
                        "trialNum": 17,
                        "response": "maybe yes",
                        "responseCoded": 1
                    },
                    {
                        "rt": 2144,
                        "swatch": "BI2A00019",
                        "trialNum": 18,
                        "response": "maybe yes",
                        "responseCoded": 1
                    },
                    {
                        "rt": 2116,
                        "swatch": "BI2A00029",
                        "trialNum": 19,
                        "response": "definitely no",
                        "responseCoded": 3
                    },
                    {
                        "rt": 2675,
                        "swatch": "BI2A00011",
                        "trialNum": 20,
                        "response": "definitely yes",
                        "responseCoded": 3
                    },
                    {
                        "rt": 1846,
                        "swatch": "BI2A00035",
                        "trialNum": 21,
                        "response": "definitely no",
                        "responseCoded": 3
                    },
                    {
                        "rt": 6503,
                        "swatch": "BI2A00047",
                        "trialNum": 22,
                        "response": "probably no",
                        "responseCoded": -2
                    },
                    {
                        "rt": 1427,
                        "swatch": "BI2A00031",
                        "trialNum": 23,
                        "response": "definitely no",
                        "responseCoded": 3
                    },
                    {
                        "rt": 2286,
                        "swatch": "BI2A00017",
                        "trialNum": 24,
                        "response": "probably no",
                        "responseCoded": -2
                    },
                    {
                        "rt": 1847,
                        "swatch": "BI2A00008",
                        "trialNum": 25,
                        "response": "maybe yes",
                        "responseCoded": 1
                    },
                    {
                        "rt": 2865,
                        "swatch": "BI2A00021",
                        "trialNum": 26,
                        "response": "probably no",
                        "responseCoded": -2
                    },
                    {
                        "rt": 1535,
                        "swatch": "BI2A00027",
                        "trialNum": 27,
                        "response": "probably no",
                        "responseCoded": -2
                    },
                    {
                        "rt": 2431,
                        "swatch": "BI2A00002",
                        "trialNum": 28,
                        "response": "probably yes",
                        "responseCoded": 2
                    },
                    {
                        "rt": 1623,
                        "swatch": "BI2A00046",
                        "trialNum": 29,
                        "response": "definitely no",
                        "responseCoded": 3
                    },
                    {
                        "rt": 2564,
                        "swatch": "BI2A00005",
                        "trialNum": 30,
                        "response": "probably yes",
                        "responseCoded": 2
                    },
                    {
                        "rt": 2197,
                        "swatch": "BI2A00010",
                        "trialNum": 31,
                        "response": "maybe yes",
                        "responseCoded": 1
                    },
                    {
                        "rt": 7426,
                        "swatch": "BI2A00024",
                        "trialNum": 32,
                        "response": "equally yes/no",
                        "responseCoded": 0
                    },
                    {
                        "rt": 2202,
                        "swatch": "BI2A00022",
                        "trialNum": 33,
                        "response": "maybe no",
                        "responseCoded": -1
                    },
                    {
                        "rt": 2979,
                        "swatch": "BI2A00026",
                        "trialNum": 34,
                        "response": "probably no",
                        "responseCoded": -2
                    },
                    {
                        "rt": 1738,
                        "swatch": "BI2A00048",
                        "trialNum": 35,
                        "response": "definitely no",
                        "responseCoded": 3
                    },
                    {
                        "rt": 1671,
                        "swatch": "BI2A00044",
                        "trialNum": 36,
                        "response": "definitely no",
                        "responseCoded": 3
                    },
                    {
                        "rt": 3233,
                        "swatch": "BI2A00034",
                        "trialNum": 37,
                        "response": "maybe no",
                        "responseCoded": -1
                    },
                    {
                        "rt": 1855,
                        "swatch": "BI2A00038",
                        "trialNum": 38,
                        "response": "definitely no",
                        "responseCoded": 3
                    },
                    {
                        "rt": 3130,
                        "swatch": "BI2A00040",
                        "trialNum": 39,
                        "response": "definitely no",
                        "responseCoded": 3
                    },
                    {
                        "rt": 1498,
                        "swatch": "BI2A00039",
                        "trialNum": 40,
                        "response": "definitely no",
                        "responseCoded": 3
                    },
                    {
                        "rt": 1592,
                        "swatch": "BI2A00041",
                        "trialNum": 41,
                        "response": "definitely no",
                        "responseCoded": 3
                    },
                    {
                        "rt": 1067,
                        "swatch": "BI2A00045",
                        "trialNum": 42,
                        "response": "definitely no",
                        "responseCoded": 3
                    },
                    {
                        "rt": 2878,
                        "swatch": "BI2A00020",
                        "trialNum": 43,
                        "response": "probably no",
                        "responseCoded": -2
                    },
                    {
                        "rt": 1530,
                        "swatch": "BI2A00036",
                        "trialNum": 44,
                        "response": "definitely no",
                        "responseCoded": 3
                    },
                    {
                        "rt": 1597,
                        "swatch": "BI2A00033",
                        "trialNum": 45,
                        "response": "maybe no",
                        "responseCoded": -1
                    },
                    {
                        "rt": 2792,
                        "swatch": "BI2A00023",
                        "trialNum": 46,
                        "response": "probably no",
                        "responseCoded": -2
                    },
                    {
                        "rt": 1669,
                        "swatch": "BI2A00014",
                        "trialNum": 47,
                        "response": "maybe no",
                        "responseCoded": -1
                    },
                    {
                        "rt": 2851,
                        "swatch": "BI2A00037",
                        "trialNum": 48,
                        "response": "definitely no",
                        "responseCoded": 3
                    }
                ],
                "gender": "female",
                "age": "60",
                "comments": "bachelor is misspelled :)",
                "religion": [
                    "christianity_other"
                ],
                "condition": "animal",
                "fingerprintData": {
                    "ip": "201.253.146.78",
                    "screenHeight": 900,
                    "plugins": [
                        {
                            "description": "Adobe PDF Plug-In For Firefox and Netscape 11.0.8",
                            "filename": "nppdf32.dll"
                        },
                        {
                            "description": "Adobe PDF Plug-In For Firefox and Netscape 11.0.8",
                            "filename": "nppdf32.dll"
                        },
                        {
                            "description": "DivX VOD Helper Plug-in",
                            "filename": "npovshelper.dll"
                        },
                        {
                            "description": "DivX Web Player version 2.1.2.265",
                            "filename": "npdivx32.dll"
                        },
                        {
                            "description": "GEPlugin",
                            "filename": "npgeplugin.dll"
                        },
                        {
                            "description": "Version 5.40.2.0",
                            "filename": "npgoogletalk.dll"
                        },
                        {
                            "description": "Version 5.40.2.0",
                            "filename": "npo1d.dll"
                        },
                        {
                            "description": "Google Update",
                            "filename": "npGoogleUpdate3.dll"
                        },
                        {
                            "description": "Google Update",
                            "filename": "npGoogleUpdate3.dll"
                        },
                        {
                            "description": "NPRuntime Script Plug-in Library for Java(TM) Deploy",
                            "filename": "npdeployJava1.dll"
                        },
                        {
                            "description": "Next Generation Java Plug-in 11.31.2 for Mozilla browsers",
                            "filename": "npjp2.dll"
                        },
                        {
                            "description": "The plug-in allows you to open and edit files using Microsoft Office applications",
                            "filename": "NPSPWRAP.DLL"
                        },
                        {
                            "description": "Office Authorization plug-in for NPAPI browsers",
                            "filename": "NPAUTHZ.DLL"
                        },
                        {
                            "description": "DRM Store Netscape Plugin",
                            "filename": "npwmsdrm.dll"
                        },
                        {
                            "description": "DRM Netscape Network Object",
                            "filename": "npdrmv2.dll"
                        },
                        {
                            "description": "Picasa plugin",
                            "filename": "npPicasa3.dll"
                        },
                        {
                            "description": "The QuickTime Plugin allows you to view a wide variety of multimedia content in Web pages. For more information, visit the <A HREF=http://www.apple.com/quicktime/>QuickTime</A> Web site.",
                            "filename": "npqtplugin4.dll"
                        },
                        {
                            "description": "The QuickTime Plugin allows you to view a wide variety of multimedia content in Web pages. For more information, visit the <A HREF=http://www.apple.com/quicktime/>QuickTime</A> Web site.",
                            "filename": "npqtplugin2.dll"
                        },
                        {
                            "description": "The QuickTime Plugin allows you to view a wide variety of multimedia content in Web pages. For more information, visit the <A HREF=http://www.apple.com/quicktime/>QuickTime</A> Web site.",
                            "filename": "npqtplugin3.dll"
                        },
                        {
                            "description": "The QuickTime Plugin allows you to view a wide variety of multimedia content in Web pages. For more information, visit the <A HREF=http://www.apple.com/quicktime/>QuickTime</A> Web site.",
                            "filename": "npqtplugin.dll"
                        },
                        {
                            "description": "The QuickTime Plugin allows you to view a wide variety of multimedia content in Web pages. For more information, visit the <A HREF=http://www.apple.com/quicktime/>QuickTime</A> Web site.",
                            "filename": "npqtplugin5.dll"
                        },
                        {
                            "description": "Shockwave Flash 16.0 r0",
                            "filename": "NPSWF32_16_0_0_305.dll"
                        },
                        {
                            "description": "5.1.30514.0",
                            "filename": "npctrl.dll"
                        },
                        {
                            "description": "VLC media player Web Plugin 2.1.3",
                            "filename": "npvlc.dll"
                        },
                        {
                            "description": "Npdsplay dll",
                            "filename": "npdsplay.dll"
                        },
                        {
                            "description": "Windows Presentation Foundation (WPF) plug-in for Mozilla browsers",
                            "filename": "NPWPF.dll"
                        }
                    ],
                    "timezone": 180,
                    "colorDepth": 24,
                    "screenWidth": 1440,
                    "geo": {
                        "city": "",
                        "region_code": "",
                        "region_name": "",
                        "ip": "201.253.146.78",
                        "time_zone": "",
                        "longitude": -58.382,
                        "metro_code": 0,
                        "latitude": -34.604,
                        "country_code": "AR",
                        "country_name": "Argentina",
                        "zip_code": ""
                    },
                    "browser": "Mozilla/5.0 (Windows NT 5.1; rv:36.0) Gecko/20100101 Firefox/36.0"
                },
                "ethnicity": [
                    "white"
                ]
            }
        }
    },
    "AcceptTime": "2015-03-03T11:07:28Z",
    "HITId": "39TX062QX1XDAW3RDVV42F2R1TJX3X",
    "Assignment": "",
    "AssignmentStatus": "Approved",
    "SubmitTime": "2015-03-03T11:13:17Z"
}