"","condition","worker_id","education","english_native","ethnicity","gender","age","religion","comp_check","comments","trialNum","swatch","response","responseCoded","rt","country"
"1","pain","A2VI55LKT5L4KB","grad_degree",NA,"asian_southAsian","male",37,"islam","In my opinion this one can feel pain for sure.","yes I am facing problem when loading images, one image represents more than one number I get confused whether images loaded correctly or not but otherwise this is very interesting and knowledgeable task,  ",1,"BI2A00004","probably yes",2,3673,"india"
"2","pain","A2VI55LKT5L4KB","grad_degree",NA,"asian_southAsian","male",37,"islam","In my opinion this one can feel pain for sure.","yes I am facing problem when loading images, one image represents more than one number I get confused whether images loaded correctly or not but otherwise this is very interesting and knowledgeable task,  ",2,"BI2A00010","probably yes",2,5979,"india"
"3","pain","A2VI55LKT5L4KB","grad_degree",NA,"asian_southAsian","male",37,"islam","In my opinion this one can feel pain for sure.","yes I am facing problem when loading images, one image represents more than one number I get confused whether images loaded correctly or not but otherwise this is very interesting and knowledgeable task,  ",3,"BI2A00037","probably yes",2,1807,"india"
"4","pain","A2VI55LKT5L4KB","grad_degree",NA,"asian_southAsian","male",37,"islam","In my opinion this one can feel pain for sure.","yes I am facing problem when loading images, one image represents more than one number I get confused whether images loaded correctly or not but otherwise this is very interesting and knowledgeable task,  ",4,"BI2A00047","probably yes",2,1595,"india"
"5","pain","A2VI55LKT5L4KB","grad_degree",NA,"asian_southAsian","male",37,"islam","In my opinion this one can feel pain for sure.","yes I am facing problem when loading images, one image represents more than one number I get confused whether images loaded correctly or not but otherwise this is very interesting and knowledgeable task,  ",5,"BI2A00042","probably yes",2,10389,"india"
"6","pain","A2VI55LKT5L4KB","grad_degree",NA,"asian_southAsian","male",37,"islam","In my opinion this one can feel pain for sure.","yes I am facing problem when loading images, one image represents more than one number I get confused whether images loaded correctly or not but otherwise this is very interesting and knowledgeable task,  ",6,"BI2A00003","probably yes",2,2031,"india"
"7","pain","A2VI55LKT5L4KB","grad_degree",NA,"asian_southAsian","male",37,"islam","In my opinion this one can feel pain for sure.","yes I am facing problem when loading images, one image represents more than one number I get confused whether images loaded correctly or not but otherwise this is very interesting and knowledgeable task,  ",7,"BI2A00035","probably yes",2,1947,"india"
"8","pain","A2VI55LKT5L4KB","grad_degree",NA,"asian_southAsian","male",37,"islam","In my opinion this one can feel pain for sure.","yes I am facing problem when loading images, one image represents more than one number I get confused whether images loaded correctly or not but otherwise this is very interesting and knowledgeable task,  ",8,"BI2A00006","probably yes",2,1763,"india"
"9","pain","A2VI55LKT5L4KB","grad_degree",NA,"asian_southAsian","male",37,"islam","In my opinion this one can feel pain for sure.","yes I am facing problem when loading images, one image represents more than one number I get confused whether images loaded correctly or not but otherwise this is very interesting and knowledgeable task,  ",9,"BI2A00039","probably yes",2,1572,"india"
"10","pain","A2VI55LKT5L4KB","grad_degree",NA,"asian_southAsian","male",37,"islam","In my opinion this one can feel pain for sure.","yes I am facing problem when loading images, one image represents more than one number I get confused whether images loaded correctly or not but otherwise this is very interesting and knowledgeable task,  ",10,"BI2A00044","probably yes",2,1693,"india"
"11","pain","A2VI55LKT5L4KB","grad_degree",NA,"asian_southAsian","male",37,"islam","In my opinion this one can feel pain for sure.","yes I am facing problem when loading images, one image represents more than one number I get confused whether images loaded correctly or not but otherwise this is very interesting and knowledgeable task,  ",11,"BI2A00041","probably yes",2,3355,"india"
"12","pain","A2VI55LKT5L4KB","grad_degree",NA,"asian_southAsian","male",37,"islam","In my opinion this one can feel pain for sure.","yes I am facing problem when loading images, one image represents more than one number I get confused whether images loaded correctly or not but otherwise this is very interesting and knowledgeable task,  ",12,"BI2A00022","probably yes",2,2381,"india"
"13","pain","A2VI55LKT5L4KB","grad_degree",NA,"asian_southAsian","male",37,"islam","In my opinion this one can feel pain for sure.","yes I am facing problem when loading images, one image represents more than one number I get confused whether images loaded correctly or not but otherwise this is very interesting and knowledgeable task,  ",13,"BI2A00028","probably yes",2,1013,"india"
"14","pain","A2VI55LKT5L4KB","grad_degree",NA,"asian_southAsian","male",37,"islam","In my opinion this one can feel pain for sure.","yes I am facing problem when loading images, one image represents more than one number I get confused whether images loaded correctly or not but otherwise this is very interesting and knowledgeable task,  ",14,"BI2A00032","probably yes",2,814,"india"
"15","pain","A2VI55LKT5L4KB","grad_degree",NA,"asian_southAsian","male",37,"islam","In my opinion this one can feel pain for sure.","yes I am facing problem when loading images, one image represents more than one number I get confused whether images loaded correctly or not but otherwise this is very interesting and knowledgeable task,  ",15,"BI2A00011","probably yes",2,1959,"india"
"16","pain","A2VI55LKT5L4KB","grad_degree",NA,"asian_southAsian","male",37,"islam","In my opinion this one can feel pain for sure.","yes I am facing problem when loading images, one image represents more than one number I get confused whether images loaded correctly or not but otherwise this is very interesting and knowledgeable task,  ",16,"BI2A00005","probably yes",2,1049,"india"
"17","pain","A2VI55LKT5L4KB","grad_degree",NA,"asian_southAsian","male",37,"islam","In my opinion this one can feel pain for sure.","yes I am facing problem when loading images, one image represents more than one number I get confused whether images loaded correctly or not but otherwise this is very interesting and knowledgeable task,  ",17,"BI2A00001","probably no",-2,4429,"india"
"18","pain","A2VI55LKT5L4KB","grad_degree",NA,"asian_southAsian","male",37,"islam","In my opinion this one can feel pain for sure.","yes I am facing problem when loading images, one image represents more than one number I get confused whether images loaded correctly or not but otherwise this is very interesting and knowledgeable task,  ",18,"BI2A00036","probably no",-2,1281,"india"
"19","pain","A2VI55LKT5L4KB","grad_degree",NA,"asian_southAsian","male",37,"islam","In my opinion this one can feel pain for sure.","yes I am facing problem when loading images, one image represents more than one number I get confused whether images loaded correctly or not but otherwise this is very interesting and knowledgeable task,  ",19,"BI2A00018","probably no",-2,2500,"india"
"20","pain","A2VI55LKT5L4KB","grad_degree",NA,"asian_southAsian","male",37,"islam","In my opinion this one can feel pain for sure.","yes I am facing problem when loading images, one image represents more than one number I get confused whether images loaded correctly or not but otherwise this is very interesting and knowledgeable task,  ",20,"BI2A00046","equally yes/no",0,8165,"india"
"21","pain","A2VI55LKT5L4KB","grad_degree",NA,"asian_southAsian","male",37,"islam","In my opinion this one can feel pain for sure.","yes I am facing problem when loading images, one image represents more than one number I get confused whether images loaded correctly or not but otherwise this is very interesting and knowledgeable task,  ",21,"BI2A00016","equally yes/no",0,940,"india"
"22","pain","A2VI55LKT5L4KB","grad_degree",NA,"asian_southAsian","male",37,"islam","In my opinion this one can feel pain for sure.","yes I am facing problem when loading images, one image represents more than one number I get confused whether images loaded correctly or not but otherwise this is very interesting and knowledgeable task,  ",22,"BI2A00024","equally yes/no",0,917,"india"
"23","pain","A2VI55LKT5L4KB","grad_degree",NA,"asian_southAsian","male",37,"islam","In my opinion this one can feel pain for sure.","yes I am facing problem when loading images, one image represents more than one number I get confused whether images loaded correctly or not but otherwise this is very interesting and knowledgeable task,  ",23,"BI2A00040","equally yes/no",0,796,"india"
"24","pain","A2VI55LKT5L4KB","grad_degree",NA,"asian_southAsian","male",37,"islam","In my opinion this one can feel pain for sure.","yes I am facing problem when loading images, one image represents more than one number I get confused whether images loaded correctly or not but otherwise this is very interesting and knowledgeable task,  ",24,"BI2A00048","equally yes/no",0,701,"india"
"25","pain","A2VI55LKT5L4KB","grad_degree",NA,"asian_southAsian","male",37,"islam","In my opinion this one can feel pain for sure.","yes I am facing problem when loading images, one image represents more than one number I get confused whether images loaded correctly or not but otherwise this is very interesting and knowledgeable task,  ",25,"BI2A00015","equally yes/no",0,933,"india"
"26","pain","A2VI55LKT5L4KB","grad_degree",NA,"asian_southAsian","male",37,"islam","In my opinion this one can feel pain for sure.","yes I am facing problem when loading images, one image represents more than one number I get confused whether images loaded correctly or not but otherwise this is very interesting and knowledgeable task,  ",26,"BI2A00026","equally yes/no",0,995,"india"
"27","pain","A2VI55LKT5L4KB","grad_degree",NA,"asian_southAsian","male",37,"islam","In my opinion this one can feel pain for sure.","yes I am facing problem when loading images, one image represents more than one number I get confused whether images loaded correctly or not but otherwise this is very interesting and knowledgeable task,  ",27,"BI2A00019","equally yes/no",0,868,"india"
"28","pain","A2VI55LKT5L4KB","grad_degree",NA,"asian_southAsian","male",37,"islam","In my opinion this one can feel pain for sure.","yes I am facing problem when loading images, one image represents more than one number I get confused whether images loaded correctly or not but otherwise this is very interesting and knowledgeable task,  ",28,"BI2A00009","equally yes/no",0,927,"india"
"29","pain","A2VI55LKT5L4KB","grad_degree",NA,"asian_southAsian","male",37,"islam","In my opinion this one can feel pain for sure.","yes I am facing problem when loading images, one image represents more than one number I get confused whether images loaded correctly or not but otherwise this is very interesting and knowledgeable task,  ",29,"BI2A00034","equally yes/no",0,869,"india"
"30","pain","A2VI55LKT5L4KB","grad_degree",NA,"asian_southAsian","male",37,"islam","In my opinion this one can feel pain for sure.","yes I am facing problem when loading images, one image represents more than one number I get confused whether images loaded correctly or not but otherwise this is very interesting and knowledgeable task,  ",30,"BI2A00043","equally yes/no",0,1221,"india"
"31","pain","A2VI55LKT5L4KB","grad_degree",NA,"asian_southAsian","male",37,"islam","In my opinion this one can feel pain for sure.","yes I am facing problem when loading images, one image represents more than one number I get confused whether images loaded correctly or not but otherwise this is very interesting and knowledgeable task,  ",31,"BI2A00023","equally yes/no",0,1421,"india"
"32","pain","A2VI55LKT5L4KB","grad_degree",NA,"asian_southAsian","male",37,"islam","In my opinion this one can feel pain for sure.","yes I am facing problem when loading images, one image represents more than one number I get confused whether images loaded correctly or not but otherwise this is very interesting and knowledgeable task,  ",32,"BI2A00030","equally yes/no",0,804,"india"
"33","pain","A2VI55LKT5L4KB","grad_degree",NA,"asian_southAsian","male",37,"islam","In my opinion this one can feel pain for sure.","yes I am facing problem when loading images, one image represents more than one number I get confused whether images loaded correctly or not but otherwise this is very interesting and knowledgeable task,  ",33,"BI2A00038","equally yes/no",0,805,"india"
"34","pain","A2VI55LKT5L4KB","grad_degree",NA,"asian_southAsian","male",37,"islam","In my opinion this one can feel pain for sure.","yes I am facing problem when loading images, one image represents more than one number I get confused whether images loaded correctly or not but otherwise this is very interesting and knowledgeable task,  ",34,"BI2A00020","equally yes/no",0,760,"india"
"35","pain","A2VI55LKT5L4KB","grad_degree",NA,"asian_southAsian","male",37,"islam","In my opinion this one can feel pain for sure.","yes I am facing problem when loading images, one image represents more than one number I get confused whether images loaded correctly or not but otherwise this is very interesting and knowledgeable task,  ",35,"BI2A00013","equally yes/no",0,771,"india"
"36","pain","A2VI55LKT5L4KB","grad_degree",NA,"asian_southAsian","male",37,"islam","In my opinion this one can feel pain for sure.","yes I am facing problem when loading images, one image represents more than one number I get confused whether images loaded correctly or not but otherwise this is very interesting and knowledgeable task,  ",36,"BI2A00031","equally yes/no",0,805,"india"
"37","pain","A2VI55LKT5L4KB","grad_degree",NA,"asian_southAsian","male",37,"islam","In my opinion this one can feel pain for sure.","yes I am facing problem when loading images, one image represents more than one number I get confused whether images loaded correctly or not but otherwise this is very interesting and knowledgeable task,  ",37,"BI2A00033","maybe no",-1,716,"india"
"38","pain","A2VI55LKT5L4KB","grad_degree",NA,"asian_southAsian","male",37,"islam","In my opinion this one can feel pain for sure.","yes I am facing problem when loading images, one image represents more than one number I get confused whether images loaded correctly or not but otherwise this is very interesting and knowledgeable task,  ",38,"BI2A00007","maybe no",-1,916,"india"
"39","pain","A2VI55LKT5L4KB","grad_degree",NA,"asian_southAsian","male",37,"islam","In my opinion this one can feel pain for sure.","yes I am facing problem when loading images, one image represents more than one number I get confused whether images loaded correctly or not but otherwise this is very interesting and knowledgeable task,  ",39,"BI2A00002","definitely yes",3,2915,"india"
"40","pain","A2VI55LKT5L4KB","grad_degree",NA,"asian_southAsian","male",37,"islam","In my opinion this one can feel pain for sure.","yes I am facing problem when loading images, one image represents more than one number I get confused whether images loaded correctly or not but otherwise this is very interesting and knowledgeable task,  ",40,"BI2A00017","definitely yes",3,1461,"india"
"41","pain","A2VI55LKT5L4KB","grad_degree",NA,"asian_southAsian","male",37,"islam","In my opinion this one can feel pain for sure.","yes I am facing problem when loading images, one image represents more than one number I get confused whether images loaded correctly or not but otherwise this is very interesting and knowledgeable task,  ",41,"BI2A00014","definitely yes",3,924,"india"
"42","pain","A2VI55LKT5L4KB","grad_degree",NA,"asian_southAsian","male",37,"islam","In my opinion this one can feel pain for sure.","yes I am facing problem when loading images, one image represents more than one number I get confused whether images loaded correctly or not but otherwise this is very interesting and knowledgeable task,  ",42,"BI2A00027","definitely yes",3,1141,"india"
"43","pain","A2VI55LKT5L4KB","grad_degree",NA,"asian_southAsian","male",37,"islam","In my opinion this one can feel pain for sure.","yes I am facing problem when loading images, one image represents more than one number I get confused whether images loaded correctly or not but otherwise this is very interesting and knowledgeable task,  ",43,"BI2A00025","definitely yes",3,2675,"india"
"44","pain","A2VI55LKT5L4KB","grad_degree",NA,"asian_southAsian","male",37,"islam","In my opinion this one can feel pain for sure.","yes I am facing problem when loading images, one image represents more than one number I get confused whether images loaded correctly or not but otherwise this is very interesting and knowledgeable task,  ",44,"BI2A00012","definitely yes",3,906,"india"
"45","pain","A2VI55LKT5L4KB","grad_degree",NA,"asian_southAsian","male",37,"islam","In my opinion this one can feel pain for sure.","yes I am facing problem when loading images, one image represents more than one number I get confused whether images loaded correctly or not but otherwise this is very interesting and knowledgeable task,  ",45,"BI2A00029","definitely yes",3,909,"india"
"46","pain","A2VI55LKT5L4KB","grad_degree",NA,"asian_southAsian","male",37,"islam","In my opinion this one can feel pain for sure.","yes I am facing problem when loading images, one image represents more than one number I get confused whether images loaded correctly or not but otherwise this is very interesting and knowledgeable task,  ",46,"BI2A00045","definitely yes",3,821,"india"
"47","pain","A2VI55LKT5L4KB","grad_degree",NA,"asian_southAsian","male",37,"islam","In my opinion this one can feel pain for sure.","yes I am facing problem when loading images, one image represents more than one number I get confused whether images loaded correctly or not but otherwise this is very interesting and knowledgeable task,  ",47,"BI2A00008","definitely yes",3,1500,"india"
"48","pain","A2VI55LKT5L4KB","grad_degree",NA,"asian_southAsian","male",37,"islam","In my opinion this one can feel pain for sure.","yes I am facing problem when loading images, one image represents more than one number I get confused whether images loaded correctly or not but otherwise this is very interesting and knowledgeable task,  ",48,"BI2A00021","definitely yes",3,947,"india"
"49","hungry","A39YMNBDNCG82M","college_bachDegree",NA,"asian_otherAsian","male",30,"hinduism","In my opinion this thing can feel hungry ","",1,"BI2A00018","definitely no",-3,9766,"india"
"50","hungry","A39YMNBDNCG82M","college_bachDegree",NA,"asian_otherAsian","male",30,"hinduism","In my opinion this thing can feel hungry ","",2,"BI2A00023","probably no",-2,10778,"india"
"51","hungry","A39YMNBDNCG82M","college_bachDegree",NA,"asian_otherAsian","male",30,"hinduism","In my opinion this thing can feel hungry ","",3,"BI2A00030","definitely no",-3,1771,"india"
"52","hungry","A39YMNBDNCG82M","college_bachDegree",NA,"asian_otherAsian","male",30,"hinduism","In my opinion this thing can feel hungry ","",4,"BI2A00041","definitely no",-3,3203,"india"
"53","hungry","A39YMNBDNCG82M","college_bachDegree",NA,"asian_otherAsian","male",30,"hinduism","In my opinion this thing can feel hungry ","",5,"BI2A00042","definitely no",-3,3133,"india"
"54","hungry","A39YMNBDNCG82M","college_bachDegree",NA,"asian_otherAsian","male",30,"hinduism","In my opinion this thing can feel hungry ","",6,"BI2A00002","maybe yes",1,17301,"india"
"55","hungry","A39YMNBDNCG82M","college_bachDegree",NA,"asian_otherAsian","male",30,"hinduism","In my opinion this thing can feel hungry ","",7,"BI2A00013","maybe yes",1,2813,"india"
"56","hungry","A39YMNBDNCG82M","college_bachDegree",NA,"asian_otherAsian","male",30,"hinduism","In my opinion this thing can feel hungry ","",8,"BI2A00045","definitely no",-3,1509,"india"
"57","hungry","A39YMNBDNCG82M","college_bachDegree",NA,"asian_otherAsian","male",30,"hinduism","In my opinion this thing can feel hungry ","",9,"BI2A00046","definitely no",-3,862,"india"
"58","hungry","A39YMNBDNCG82M","college_bachDegree",NA,"asian_otherAsian","male",30,"hinduism","In my opinion this thing can feel hungry ","",10,"BI2A00017","definitely no",-3,1461,"india"
"59","hungry","A39YMNBDNCG82M","college_bachDegree",NA,"asian_otherAsian","male",30,"hinduism","In my opinion this thing can feel hungry ","",11,"BI2A00026","probably no",-2,5422,"india"
"60","hungry","A39YMNBDNCG82M","college_bachDegree",NA,"asian_otherAsian","male",30,"hinduism","In my opinion this thing can feel hungry ","",12,"BI2A00021","definitely no",-3,1390,"india"
"61","hungry","A39YMNBDNCG82M","college_bachDegree",NA,"asian_otherAsian","male",30,"hinduism","In my opinion this thing can feel hungry ","",13,"BI2A00044","definitely no",-3,950,"india"
"62","hungry","A39YMNBDNCG82M","college_bachDegree",NA,"asian_otherAsian","male",30,"hinduism","In my opinion this thing can feel hungry ","",14,"BI2A00033","definitely no",-3,982,"india"
"63","hungry","A39YMNBDNCG82M","college_bachDegree",NA,"asian_otherAsian","male",30,"hinduism","In my opinion this thing can feel hungry ","",15,"BI2A00009","equally yes/no",0,1974,"india"
"64","hungry","A39YMNBDNCG82M","college_bachDegree",NA,"asian_otherAsian","male",30,"hinduism","In my opinion this thing can feel hungry ","",16,"BI2A00022","probably no",-2,3822,"india"
"65","hungry","A39YMNBDNCG82M","college_bachDegree",NA,"asian_otherAsian","male",30,"hinduism","In my opinion this thing can feel hungry ","",17,"BI2A00037","definitely no",-3,1422,"india"
"66","hungry","A39YMNBDNCG82M","college_bachDegree",NA,"asian_otherAsian","male",30,"hinduism","In my opinion this thing can feel hungry ","",18,"BI2A00032","definitely no",-3,949,"india"
"67","hungry","A39YMNBDNCG82M","college_bachDegree",NA,"asian_otherAsian","male",30,"hinduism","In my opinion this thing can feel hungry ","",19,"BI2A00034","definitely no",-3,1021,"india"
"68","hungry","A39YMNBDNCG82M","college_bachDegree",NA,"asian_otherAsian","male",30,"hinduism","In my opinion this thing can feel hungry ","",20,"BI2A00040","definitely no",-3,885,"india"
"69","hungry","A39YMNBDNCG82M","college_bachDegree",NA,"asian_otherAsian","male",30,"hinduism","In my opinion this thing can feel hungry ","",21,"BI2A00029","definitely no",-3,1044,"india"
"70","hungry","A39YMNBDNCG82M","college_bachDegree",NA,"asian_otherAsian","male",30,"hinduism","In my opinion this thing can feel hungry ","",22,"BI2A00011","maybe yes",1,2109,"india"
"71","hungry","A39YMNBDNCG82M","college_bachDegree",NA,"asian_otherAsian","male",30,"hinduism","In my opinion this thing can feel hungry ","",23,"BI2A00007","maybe yes",1,902,"india"
"72","hungry","A39YMNBDNCG82M","college_bachDegree",NA,"asian_otherAsian","male",30,"hinduism","In my opinion this thing can feel hungry ","",24,"BI2A00012","probably no",-2,3350,"india"
"73","hungry","A39YMNBDNCG82M","college_bachDegree",NA,"asian_otherAsian","male",30,"hinduism","In my opinion this thing can feel hungry ","",25,"BI2A00035","definitely no",-3,1285,"india"
"74","hungry","A39YMNBDNCG82M","college_bachDegree",NA,"asian_otherAsian","male",30,"hinduism","In my opinion this thing can feel hungry ","",26,"BI2A00024","maybe yes",1,4941,"india"
"75","hungry","A39YMNBDNCG82M","college_bachDegree",NA,"asian_otherAsian","male",30,"hinduism","In my opinion this thing can feel hungry ","",27,"BI2A00048","definitely no",-3,2613,"india"
"76","hungry","A39YMNBDNCG82M","college_bachDegree",NA,"asian_otherAsian","male",30,"hinduism","In my opinion this thing can feel hungry ","",28,"BI2A00019","maybe yes",1,1836,"india"
"77","hungry","A39YMNBDNCG82M","college_bachDegree",NA,"asian_otherAsian","male",30,"hinduism","In my opinion this thing can feel hungry ","",29,"BI2A00003","maybe yes",1,1396,"india"
"78","hungry","A39YMNBDNCG82M","college_bachDegree",NA,"asian_otherAsian","male",30,"hinduism","In my opinion this thing can feel hungry ","",30,"BI2A00015","maybe yes",1,1444,"india"
"79","hungry","A39YMNBDNCG82M","college_bachDegree",NA,"asian_otherAsian","male",30,"hinduism","In my opinion this thing can feel hungry ","",31,"BI2A00027","definitely no",-3,1476,"india"
"80","hungry","A39YMNBDNCG82M","college_bachDegree",NA,"asian_otherAsian","male",30,"hinduism","In my opinion this thing can feel hungry ","",32,"BI2A00039","definitely no",-3,756,"india"
"81","hungry","A39YMNBDNCG82M","college_bachDegree",NA,"asian_otherAsian","male",30,"hinduism","In my opinion this thing can feel hungry ","",33,"BI2A00020","maybe yes",1,1685,"india"
"82","hungry","A39YMNBDNCG82M","college_bachDegree",NA,"asian_otherAsian","male",30,"hinduism","In my opinion this thing can feel hungry ","",34,"BI2A00043","definitely no",-3,1347,"india"
"83","hungry","A39YMNBDNCG82M","college_bachDegree",NA,"asian_otherAsian","male",30,"hinduism","In my opinion this thing can feel hungry ","",35,"BI2A00047","definitely no",-3,820,"india"
"84","hungry","A39YMNBDNCG82M","college_bachDegree",NA,"asian_otherAsian","male",30,"hinduism","In my opinion this thing can feel hungry ","",36,"BI2A00036","definitely no",-3,1421,"india"
"85","hungry","A39YMNBDNCG82M","college_bachDegree",NA,"asian_otherAsian","male",30,"hinduism","In my opinion this thing can feel hungry ","",37,"BI2A00038","definitely no",-3,621,"india"
"86","hungry","A39YMNBDNCG82M","college_bachDegree",NA,"asian_otherAsian","male",30,"hinduism","In my opinion this thing can feel hungry ","",38,"BI2A00006","maybe yes",1,1228,"india"
"87","hungry","A39YMNBDNCG82M","college_bachDegree",NA,"asian_otherAsian","male",30,"hinduism","In my opinion this thing can feel hungry ","",39,"BI2A00008","maybe yes",1,996,"india"
"88","hungry","A39YMNBDNCG82M","college_bachDegree",NA,"asian_otherAsian","male",30,"hinduism","In my opinion this thing can feel hungry ","",40,"BI2A00016","maybe yes",1,893,"india"
"89","hungry","A39YMNBDNCG82M","college_bachDegree",NA,"asian_otherAsian","male",30,"hinduism","In my opinion this thing can feel hungry ","",41,"BI2A00028","definitely no",-3,1372,"india"
"90","hungry","A39YMNBDNCG82M","college_bachDegree",NA,"asian_otherAsian","male",30,"hinduism","In my opinion this thing can feel hungry ","",42,"BI2A00004","maybe yes",1,1204,"india"
"91","hungry","A39YMNBDNCG82M","college_bachDegree",NA,"asian_otherAsian","male",30,"hinduism","In my opinion this thing can feel hungry ","",43,"BI2A00031","definitely no",-3,989,"india"
"92","hungry","A39YMNBDNCG82M","college_bachDegree",NA,"asian_otherAsian","male",30,"hinduism","In my opinion this thing can feel hungry ","",44,"BI2A00005","maybe yes",1,1333,"india"
"93","hungry","A39YMNBDNCG82M","college_bachDegree",NA,"asian_otherAsian","male",30,"hinduism","In my opinion this thing can feel hungry ","",45,"BI2A00001","maybe yes",1,1333,"india"
"94","hungry","A39YMNBDNCG82M","college_bachDegree",NA,"asian_otherAsian","male",30,"hinduism","In my opinion this thing can feel hungry ","",46,"BI2A00025","definitely no",-3,1277,"india"
"95","hungry","A39YMNBDNCG82M","college_bachDegree",NA,"asian_otherAsian","male",30,"hinduism","In my opinion this thing can feel hungry ","",47,"BI2A00010","maybe yes",1,1957,"india"
"96","hungry","A39YMNBDNCG82M","college_bachDegree",NA,"asian_otherAsian","male",30,"hinduism","In my opinion this thing can feel hungry ","",48,"BI2A00014","definitely no",-3,941,"india"
"97","sense","A2QE8V300W9B5E","college_bachDegree",NA,"asian_southAsian","male",24,"hinduism","I think that this one can sense things that are close .","no comments",1,"BI2A00029","definitely yes",3,14961,"india"
"98","sense","A2QE8V300W9B5E","college_bachDegree",NA,"asian_southAsian","male",24,"hinduism","I think that this one can sense things that are close .","no comments",2,"BI2A00036","definitely yes",3,7653,"india"
"99","sense","A2QE8V300W9B5E","college_bachDegree",NA,"asian_southAsian","male",24,"hinduism","I think that this one can sense things that are close .","no comments",3,"BI2A00015","definitely yes",3,6548,"india"
"100","sense","A2QE8V300W9B5E","college_bachDegree",NA,"asian_southAsian","male",24,"hinduism","I think that this one can sense things that are close .","no comments",4,"BI2A00006","definitely yes",3,2332,"india"
"101","sense","A2QE8V300W9B5E","college_bachDegree",NA,"asian_southAsian","male",24,"hinduism","I think that this one can sense things that are close .","no comments",5,"BI2A00031","definitely yes",3,3852,"india"
"102","sense","A2QE8V300W9B5E","college_bachDegree",NA,"asian_southAsian","male",24,"hinduism","I think that this one can sense things that are close .","no comments",6,"BI2A00022","definitely yes",3,2333,"india"
"103","sense","A2QE8V300W9B5E","college_bachDegree",NA,"asian_southAsian","male",24,"hinduism","I think that this one can sense things that are close .","no comments",7,"BI2A00012","definitely yes",3,2535,"india"
"104","sense","A2QE8V300W9B5E","college_bachDegree",NA,"asian_southAsian","male",24,"hinduism","I think that this one can sense things that are close .","no comments",8,"BI2A00025","definitely yes",3,1699,"india"
"105","sense","A2QE8V300W9B5E","college_bachDegree",NA,"asian_southAsian","male",24,"hinduism","I think that this one can sense things that are close .","no comments",9,"BI2A00014","definitely yes",3,2800,"india"
"106","sense","A2QE8V300W9B5E","college_bachDegree",NA,"asian_southAsian","male",24,"hinduism","I think that this one can sense things that are close .","no comments",10,"BI2A00037","definitely yes",3,1348,"india"
"107","sense","A2QE8V300W9B5E","college_bachDegree",NA,"asian_southAsian","male",24,"hinduism","I think that this one can sense things that are close .","no comments",11,"BI2A00020","definitely yes",3,1067,"india"
"108","sense","A2QE8V300W9B5E","college_bachDegree",NA,"asian_southAsian","male",24,"hinduism","I think that this one can sense things that are close .","no comments",12,"BI2A00046","definitely yes",3,1565,"india"
"109","sense","A2QE8V300W9B5E","college_bachDegree",NA,"asian_southAsian","male",24,"hinduism","I think that this one can sense things that are close .","no comments",13,"BI2A00018","definitely yes",3,2201,"india"
"110","sense","A2QE8V300W9B5E","college_bachDegree",NA,"asian_southAsian","male",24,"hinduism","I think that this one can sense things that are close .","no comments",14,"BI2A00004","definitely yes",3,1167,"india"
"111","sense","A2QE8V300W9B5E","college_bachDegree",NA,"asian_southAsian","male",24,"hinduism","I think that this one can sense things that are close .","no comments",15,"BI2A00005","definitely yes",3,952,"india"
"112","sense","A2QE8V300W9B5E","college_bachDegree",NA,"asian_southAsian","male",24,"hinduism","I think that this one can sense things that are close .","no comments",16,"BI2A00003","definitely yes",3,1182,"india"
"113","sense","A2QE8V300W9B5E","college_bachDegree",NA,"asian_southAsian","male",24,"hinduism","I think that this one can sense things that are close .","no comments",17,"BI2A00042","definitely yes",3,2484,"india"
"114","sense","A2QE8V300W9B5E","college_bachDegree",NA,"asian_southAsian","male",24,"hinduism","I think that this one can sense things that are close .","no comments",18,"BI2A00001","definitely yes",3,2148,"india"
"115","sense","A2QE8V300W9B5E","college_bachDegree",NA,"asian_southAsian","male",24,"hinduism","I think that this one can sense things that are close .","no comments",19,"BI2A00032","definitely yes",3,766,"india"
"116","sense","A2QE8V300W9B5E","college_bachDegree",NA,"asian_southAsian","male",24,"hinduism","I think that this one can sense things that are close .","no comments",20,"BI2A00013","definitely yes",3,819,"india"
"117","sense","A2QE8V300W9B5E","college_bachDegree",NA,"asian_southAsian","male",24,"hinduism","I think that this one can sense things that are close .","no comments",21,"BI2A00016","definitely yes",3,1265,"india"
"118","sense","A2QE8V300W9B5E","college_bachDegree",NA,"asian_southAsian","male",24,"hinduism","I think that this one can sense things that are close .","no comments",22,"BI2A00028","definitely yes",3,1734,"india"
"119","sense","A2QE8V300W9B5E","college_bachDegree",NA,"asian_southAsian","male",24,"hinduism","I think that this one can sense things that are close .","no comments",23,"BI2A00027","definitely yes",3,916,"india"
"120","sense","A2QE8V300W9B5E","college_bachDegree",NA,"asian_southAsian","male",24,"hinduism","I think that this one can sense things that are close .","no comments",24,"BI2A00044","definitely yes",3,834,"india"
"121","sense","A2QE8V300W9B5E","college_bachDegree",NA,"asian_southAsian","male",24,"hinduism","I think that this one can sense things that are close .","no comments",25,"BI2A00048","definitely yes",3,1200,"india"
"122","sense","A2QE8V300W9B5E","college_bachDegree",NA,"asian_southAsian","male",24,"hinduism","I think that this one can sense things that are close .","no comments",26,"BI2A00033","definitely yes",3,735,"india"
"123","sense","A2QE8V300W9B5E","college_bachDegree",NA,"asian_southAsian","male",24,"hinduism","I think that this one can sense things that are close .","no comments",27,"BI2A00045","definitely yes",3,1015,"india"
"124","sense","A2QE8V300W9B5E","college_bachDegree",NA,"asian_southAsian","male",24,"hinduism","I think that this one can sense things that are close .","no comments",28,"BI2A00017","definitely yes",3,827,"india"
"125","sense","A2QE8V300W9B5E","college_bachDegree",NA,"asian_southAsian","male",24,"hinduism","I think that this one can sense things that are close .","no comments",29,"BI2A00002","definitely yes",3,710,"india"
"126","sense","A2QE8V300W9B5E","college_bachDegree",NA,"asian_southAsian","male",24,"hinduism","I think that this one can sense things that are close .","no comments",30,"BI2A00008","definitely yes",3,604,"india"
"127","sense","A2QE8V300W9B5E","college_bachDegree",NA,"asian_southAsian","male",24,"hinduism","I think that this one can sense things that are close .","no comments",31,"BI2A00043","definitely yes",3,4757,"india"
"128","sense","A2QE8V300W9B5E","college_bachDegree",NA,"asian_southAsian","male",24,"hinduism","I think that this one can sense things that are close .","no comments",32,"BI2A00034","definitely yes",3,1282,"india"
"129","sense","A2QE8V300W9B5E","college_bachDegree",NA,"asian_southAsian","male",24,"hinduism","I think that this one can sense things that are close .","no comments",33,"BI2A00038","definitely yes",3,1032,"india"
"130","sense","A2QE8V300W9B5E","college_bachDegree",NA,"asian_southAsian","male",24,"hinduism","I think that this one can sense things that are close .","no comments",34,"BI2A00009","definitely yes",3,734,"india"
"131","sense","A2QE8V300W9B5E","college_bachDegree",NA,"asian_southAsian","male",24,"hinduism","I think that this one can sense things that are close .","no comments",35,"BI2A00007","definitely yes",3,801,"india"
"132","sense","A2QE8V300W9B5E","college_bachDegree",NA,"asian_southAsian","male",24,"hinduism","I think that this one can sense things that are close .","no comments",36,"BI2A00047","definitely yes",3,7215,"india"
"133","sense","A2QE8V300W9B5E","college_bachDegree",NA,"asian_southAsian","male",24,"hinduism","I think that this one can sense things that are close .","no comments",37,"BI2A00026","definitely yes",3,1385,"india"
"134","sense","A2QE8V300W9B5E","college_bachDegree",NA,"asian_southAsian","male",24,"hinduism","I think that this one can sense things that are close .","no comments",38,"BI2A00024","definitely yes",3,2515,"india"
"135","sense","A2QE8V300W9B5E","college_bachDegree",NA,"asian_southAsian","male",24,"hinduism","I think that this one can sense things that are close .","no comments",39,"BI2A00040","definitely yes",3,1399,"india"
"136","sense","A2QE8V300W9B5E","college_bachDegree",NA,"asian_southAsian","male",24,"hinduism","I think that this one can sense things that are close .","no comments",40,"BI2A00021","definitely yes",3,1115,"india"
"137","sense","A2QE8V300W9B5E","college_bachDegree",NA,"asian_southAsian","male",24,"hinduism","I think that this one can sense things that are close .","no comments",41,"BI2A00019","definitely yes",3,852,"india"
"138","sense","A2QE8V300W9B5E","college_bachDegree",NA,"asian_southAsian","male",24,"hinduism","I think that this one can sense things that are close .","no comments",42,"BI2A00011","definitely yes",3,2899,"india"
"139","sense","A2QE8V300W9B5E","college_bachDegree",NA,"asian_southAsian","male",24,"hinduism","I think that this one can sense things that are close .","no comments",43,"BI2A00039","definitely yes",3,4251,"india"
"140","sense","A2QE8V300W9B5E","college_bachDegree",NA,"asian_southAsian","male",24,"hinduism","I think that this one can sense things that are close .","no comments",44,"BI2A00030","definitely yes",3,966,"india"
"141","sense","A2QE8V300W9B5E","college_bachDegree",NA,"asian_southAsian","male",24,"hinduism","I think that this one can sense things that are close .","no comments",45,"BI2A00023","definitely yes",3,1751,"india"
"142","sense","A2QE8V300W9B5E","college_bachDegree",NA,"asian_southAsian","male",24,"hinduism","I think that this one can sense things that are close .","no comments",46,"BI2A00010","definitely yes",3,833,"india"
"143","sense","A2QE8V300W9B5E","college_bachDegree",NA,"asian_southAsian","male",24,"hinduism","I think that this one can sense things that are close .","no comments",47,"BI2A00035","definitely yes",3,1917,"india"
"144","sense","A2QE8V300W9B5E","college_bachDegree",NA,"asian_southAsian","male",24,"hinduism","I think that this one can sense things that are close .","no comments",48,"BI2A00041","definitely yes",3,901,"india"
"145","emotions","A164EJTEKF1ECH","grad_degree",NA,"asian_southAsian","female",34,"islam","This one can feel emotions ","The survey seems interesting, my best wishes for your research, thank you.",1,"BI2A00012","probably yes",2,4084,"india"
"146","emotions","A164EJTEKF1ECH","grad_degree",NA,"asian_southAsian","female",34,"islam","This one can feel emotions ","The survey seems interesting, my best wishes for your research, thank you.",2,"BI2A00010","probably no",-2,2057,"india"
"147","emotions","A164EJTEKF1ECH","grad_degree",NA,"asian_southAsian","female",34,"islam","This one can feel emotions ","The survey seems interesting, my best wishes for your research, thank you.",3,"BI2A00045","maybe yes",1,2221,"india"
"148","emotions","A164EJTEKF1ECH","grad_degree",NA,"asian_southAsian","female",34,"islam","This one can feel emotions ","The survey seems interesting, my best wishes for your research, thank you.",4,"BI2A00019","probably yes",2,1565,"india"
"149","emotions","A164EJTEKF1ECH","grad_degree",NA,"asian_southAsian","female",34,"islam","This one can feel emotions ","The survey seems interesting, my best wishes for your research, thank you.",5,"BI2A00013","definitely yes",3,1272,"india"
"150","emotions","A164EJTEKF1ECH","grad_degree",NA,"asian_southAsian","female",34,"islam","This one can feel emotions ","The survey seems interesting, my best wishes for your research, thank you.",6,"BI2A00037","definitely no",-3,2160,"india"
"151","emotions","A164EJTEKF1ECH","grad_degree",NA,"asian_southAsian","female",34,"islam","This one can feel emotions ","The survey seems interesting, my best wishes for your research, thank you.",7,"BI2A00008","maybe yes",1,2452,"india"
"152","emotions","A164EJTEKF1ECH","grad_degree",NA,"asian_southAsian","female",34,"islam","This one can feel emotions ","The survey seems interesting, my best wishes for your research, thank you.",8,"BI2A00043","definitely no",-3,1577,"india"
"153","emotions","A164EJTEKF1ECH","grad_degree",NA,"asian_southAsian","female",34,"islam","This one can feel emotions ","The survey seems interesting, my best wishes for your research, thank you.",9,"BI2A00041","definitely no",-3,353,"india"
"154","emotions","A164EJTEKF1ECH","grad_degree",NA,"asian_southAsian","female",34,"islam","This one can feel emotions ","The survey seems interesting, my best wishes for your research, thank you.",10,"BI2A00028","definitely no",-3,1361,"india"
"155","emotions","A164EJTEKF1ECH","grad_degree",NA,"asian_southAsian","female",34,"islam","This one can feel emotions ","The survey seems interesting, my best wishes for your research, thank you.",11,"BI2A00044","definitely no",-3,1152,"india"
"156","emotions","A164EJTEKF1ECH","grad_degree",NA,"asian_southAsian","female",34,"islam","This one can feel emotions ","The survey seems interesting, my best wishes for your research, thank you.",12,"BI2A00005","definitely yes",3,1761,"india"
"157","emotions","A164EJTEKF1ECH","grad_degree",NA,"asian_southAsian","female",34,"islam","This one can feel emotions ","The survey seems interesting, my best wishes for your research, thank you.",13,"BI2A00042","definitely no",-3,1596,"india"
"158","emotions","A164EJTEKF1ECH","grad_degree",NA,"asian_southAsian","female",34,"islam","This one can feel emotions ","The survey seems interesting, my best wishes for your research, thank you.",14,"BI2A00029","definitely no",-3,1425,"india"
"159","emotions","A164EJTEKF1ECH","grad_degree",NA,"asian_southAsian","female",34,"islam","This one can feel emotions ","The survey seems interesting, my best wishes for your research, thank you.",15,"BI2A00024","definitely yes",3,1736,"india"
"160","emotions","A164EJTEKF1ECH","grad_degree",NA,"asian_southAsian","female",34,"islam","This one can feel emotions ","The survey seems interesting, my best wishes for your research, thank you.",16,"BI2A00020","definitely yes",3,978,"india"
"161","emotions","A164EJTEKF1ECH","grad_degree",NA,"asian_southAsian","female",34,"islam","This one can feel emotions ","The survey seems interesting, my best wishes for your research, thank you.",17,"BI2A00016","definitely yes",3,1020,"india"
"162","emotions","A164EJTEKF1ECH","grad_degree",NA,"asian_southAsian","female",34,"islam","This one can feel emotions ","The survey seems interesting, my best wishes for your research, thank you.",18,"BI2A00003","definitely yes",3,978,"india"
"163","emotions","A164EJTEKF1ECH","grad_degree",NA,"asian_southAsian","female",34,"islam","This one can feel emotions ","The survey seems interesting, my best wishes for your research, thank you.",19,"BI2A00011","probably yes",2,1340,"india"
"164","emotions","A164EJTEKF1ECH","grad_degree",NA,"asian_southAsian","female",34,"islam","This one can feel emotions ","The survey seems interesting, my best wishes for your research, thank you.",20,"BI2A00036","definitely no",-3,2242,"india"
"165","emotions","A164EJTEKF1ECH","grad_degree",NA,"asian_southAsian","female",34,"islam","This one can feel emotions ","The survey seems interesting, my best wishes for your research, thank you.",21,"BI2A00030","definitely no",-3,1007,"india"
"166","emotions","A164EJTEKF1ECH","grad_degree",NA,"asian_southAsian","female",34,"islam","This one can feel emotions ","The survey seems interesting, my best wishes for your research, thank you.",22,"BI2A00034","definitely no",-3,1107,"india"
"167","emotions","A164EJTEKF1ECH","grad_degree",NA,"asian_southAsian","female",34,"islam","This one can feel emotions ","The survey seems interesting, my best wishes for your research, thank you.",23,"BI2A00021","definitely no",-3,940,"india"
"168","emotions","A164EJTEKF1ECH","grad_degree",NA,"asian_southAsian","female",34,"islam","This one can feel emotions ","The survey seems interesting, my best wishes for your research, thank you.",24,"BI2A00006","probably yes",2,1568,"india"
"169","emotions","A164EJTEKF1ECH","grad_degree",NA,"asian_southAsian","female",34,"islam","This one can feel emotions ","The survey seems interesting, my best wishes for your research, thank you.",25,"BI2A00047","definitely no",-3,2469,"india"
"170","emotions","A164EJTEKF1ECH","grad_degree",NA,"asian_southAsian","female",34,"islam","This one can feel emotions ","The survey seems interesting, my best wishes for your research, thank you.",26,"BI2A00025","probably yes",2,1999,"india"
"171","emotions","A164EJTEKF1ECH","grad_degree",NA,"asian_southAsian","female",34,"islam","This one can feel emotions ","The survey seems interesting, my best wishes for your research, thank you.",27,"BI2A00027","definitely no",-3,1794,"india"
"172","emotions","A164EJTEKF1ECH","grad_degree",NA,"asian_southAsian","female",34,"islam","This one can feel emotions ","The survey seems interesting, my best wishes for your research, thank you.",28,"BI2A00032","definitely no",-3,1076,"india"
"173","emotions","A164EJTEKF1ECH","grad_degree",NA,"asian_southAsian","female",34,"islam","This one can feel emotions ","The survey seems interesting, my best wishes for your research, thank you.",29,"BI2A00018","definitely no",-3,983,"india"
"174","emotions","A164EJTEKF1ECH","grad_degree",NA,"asian_southAsian","female",34,"islam","This one can feel emotions ","The survey seems interesting, my best wishes for your research, thank you.",30,"BI2A00046","definitely no",-3,1137,"india"
"175","emotions","A164EJTEKF1ECH","grad_degree",NA,"asian_southAsian","female",34,"islam","This one can feel emotions ","The survey seems interesting, my best wishes for your research, thank you.",31,"BI2A00022","definitely no",-3,985,"india"
"176","emotions","A164EJTEKF1ECH","grad_degree",NA,"asian_southAsian","female",34,"islam","This one can feel emotions ","The survey seems interesting, my best wishes for your research, thank you.",32,"BI2A00004","definitely yes",3,1734,"india"
"177","emotions","A164EJTEKF1ECH","grad_degree",NA,"asian_southAsian","female",34,"islam","This one can feel emotions ","The survey seems interesting, my best wishes for your research, thank you.",33,"BI2A00033","definitely no",-3,1621,"india"
"178","emotions","A164EJTEKF1ECH","grad_degree",NA,"asian_southAsian","female",34,"islam","This one can feel emotions ","The survey seems interesting, my best wishes for your research, thank you.",34,"BI2A00038","definitely no",-3,1007,"india"
"179","emotions","A164EJTEKF1ECH","grad_degree",NA,"asian_southAsian","female",34,"islam","This one can feel emotions ","The survey seems interesting, my best wishes for your research, thank you.",35,"BI2A00048","definitely no",-3,992,"india"
"180","emotions","A164EJTEKF1ECH","grad_degree",NA,"asian_southAsian","female",34,"islam","This one can feel emotions ","The survey seems interesting, my best wishes for your research, thank you.",36,"BI2A00040","definitely no",-3,1161,"india"
"181","emotions","A164EJTEKF1ECH","grad_degree",NA,"asian_southAsian","female",34,"islam","This one can feel emotions ","The survey seems interesting, my best wishes for your research, thank you.",37,"BI2A00009","definitely yes",3,1982,"india"
"182","emotions","A164EJTEKF1ECH","grad_degree",NA,"asian_southAsian","female",34,"islam","This one can feel emotions ","The survey seems interesting, my best wishes for your research, thank you.",38,"BI2A00001","definitely yes",3,1358,"india"
"183","emotions","A164EJTEKF1ECH","grad_degree",NA,"asian_southAsian","female",34,"islam","This one can feel emotions ","The survey seems interesting, my best wishes for your research, thank you.",39,"BI2A00035","definitely no",-3,2664,"india"
"184","emotions","A164EJTEKF1ECH","grad_degree",NA,"asian_southAsian","female",34,"islam","This one can feel emotions ","The survey seems interesting, my best wishes for your research, thank you.",40,"BI2A00017","definitely no",-3,1108,"india"
"185","emotions","A164EJTEKF1ECH","grad_degree",NA,"asian_southAsian","female",34,"islam","This one can feel emotions ","The survey seems interesting, my best wishes for your research, thank you.",41,"BI2A00014","definitely no",-3,953,"india"
"186","emotions","A164EJTEKF1ECH","grad_degree",NA,"asian_southAsian","female",34,"islam","This one can feel emotions ","The survey seems interesting, my best wishes for your research, thank you.",42,"BI2A00002","probably yes",2,1742,"india"
"187","emotions","A164EJTEKF1ECH","grad_degree",NA,"asian_southAsian","female",34,"islam","This one can feel emotions ","The survey seems interesting, my best wishes for your research, thank you.",43,"BI2A00007","definitely yes",3,1174,"india"
"188","emotions","A164EJTEKF1ECH","grad_degree",NA,"asian_southAsian","female",34,"islam","This one can feel emotions ","The survey seems interesting, my best wishes for your research, thank you.",44,"BI2A00026","definitely no",-3,1851,"india"
"189","emotions","A164EJTEKF1ECH","grad_degree",NA,"asian_southAsian","female",34,"islam","This one can feel emotions ","The survey seems interesting, my best wishes for your research, thank you.",45,"BI2A00039","definitely no",-3,1157,"india"
"190","emotions","A164EJTEKF1ECH","grad_degree",NA,"asian_southAsian","female",34,"islam","This one can feel emotions ","The survey seems interesting, my best wishes for your research, thank you.",46,"BI2A00023","definitely no",-3,1453,"india"
"191","emotions","A164EJTEKF1ECH","grad_degree",NA,"asian_southAsian","female",34,"islam","This one can feel emotions ","The survey seems interesting, my best wishes for your research, thank you.",47,"BI2A00031","definitely no",-3,1015,"india"
"192","emotions","A164EJTEKF1ECH","grad_degree",NA,"asian_southAsian","female",34,"islam","This one can feel emotions ","The survey seems interesting, my best wishes for your research, thank you.",48,"BI2A00015","maybe yes",1,1928,"india"
"193","sense","A11309DDKSLTVL","grad_some",NA,"asian_southAsian","male",57,"christianity_protestant","This is capable of sensing nearby things. "," Most of the images shown are animal fur ,closeups... I have marked ' NO ' taking in to account of   the image shown. only and not of the animal ..",1,"BI2A00007","definitely no",-3,16119,"india"
"194","sense","A11309DDKSLTVL","grad_some",NA,"asian_southAsian","male",57,"christianity_protestant","This is capable of sensing nearby things. "," Most of the images shown are animal fur ,closeups... I have marked ' NO ' taking in to account of   the image shown. only and not of the animal ..",2,"BI2A00005","definitely no",-3,7838,"india"
"195","sense","A11309DDKSLTVL","grad_some",NA,"asian_southAsian","male",57,"christianity_protestant","This is capable of sensing nearby things. "," Most of the images shown are animal fur ,closeups... I have marked ' NO ' taking in to account of   the image shown. only and not of the animal ..",3,"BI2A00048","definitely no",-3,1240,"india"
"196","sense","A11309DDKSLTVL","grad_some",NA,"asian_southAsian","male",57,"christianity_protestant","This is capable of sensing nearby things. "," Most of the images shown are animal fur ,closeups... I have marked ' NO ' taking in to account of   the image shown. only and not of the animal ..",4,"BI2A00041","definitely no",-3,2051,"india"
"197","sense","A11309DDKSLTVL","grad_some",NA,"asian_southAsian","male",57,"christianity_protestant","This is capable of sensing nearby things. "," Most of the images shown are animal fur ,closeups... I have marked ' NO ' taking in to account of   the image shown. only and not of the animal ..",5,"BI2A00003","definitely no",-3,1368,"india"
"198","sense","A11309DDKSLTVL","grad_some",NA,"asian_southAsian","male",57,"christianity_protestant","This is capable of sensing nearby things. "," Most of the images shown are animal fur ,closeups... I have marked ' NO ' taking in to account of   the image shown. only and not of the animal ..",6,"BI2A00047","definitely no",-3,1328,"india"
"199","sense","A11309DDKSLTVL","grad_some",NA,"asian_southAsian","male",57,"christianity_protestant","This is capable of sensing nearby things. "," Most of the images shown are animal fur ,closeups... I have marked ' NO ' taking in to account of   the image shown. only and not of the animal ..",7,"BI2A00024","probably no",-2,10556,"india"
"200","sense","A11309DDKSLTVL","grad_some",NA,"asian_southAsian","male",57,"christianity_protestant","This is capable of sensing nearby things. "," Most of the images shown are animal fur ,closeups... I have marked ' NO ' taking in to account of   the image shown. only and not of the animal ..",8,"BI2A00029","definitely no",-3,1744,"india"
"201","sense","A11309DDKSLTVL","grad_some",NA,"asian_southAsian","male",57,"christianity_protestant","This is capable of sensing nearby things. "," Most of the images shown are animal fur ,closeups... I have marked ' NO ' taking in to account of   the image shown. only and not of the animal ..",9,"BI2A00035","definitely no",-3,1105,"india"
"202","sense","A11309DDKSLTVL","grad_some",NA,"asian_southAsian","male",57,"christianity_protestant","This is capable of sensing nearby things. "," Most of the images shown are animal fur ,closeups... I have marked ' NO ' taking in to account of   the image shown. only and not of the animal ..",10,"BI2A00046","definitely no",-3,950,"india"
"203","sense","A11309DDKSLTVL","grad_some",NA,"asian_southAsian","male",57,"christianity_protestant","This is capable of sensing nearby things. "," Most of the images shown are animal fur ,closeups... I have marked ' NO ' taking in to account of   the image shown. only and not of the animal ..",11,"BI2A00001","probably no",-2,3849,"india"
"204","sense","A11309DDKSLTVL","grad_some",NA,"asian_southAsian","male",57,"christianity_protestant","This is capable of sensing nearby things. "," Most of the images shown are animal fur ,closeups... I have marked ' NO ' taking in to account of   the image shown. only and not of the animal ..",12,"BI2A00019","probably no",-2,2570,"india"
"205","sense","A11309DDKSLTVL","grad_some",NA,"asian_southAsian","male",57,"christianity_protestant","This is capable of sensing nearby things. "," Most of the images shown are animal fur ,closeups... I have marked ' NO ' taking in to account of   the image shown. only and not of the animal ..",13,"BI2A00025","definitely no",-3,2434,"india"
"206","sense","A11309DDKSLTVL","grad_some",NA,"asian_southAsian","male",57,"christianity_protestant","This is capable of sensing nearby things. "," Most of the images shown are animal fur ,closeups... I have marked ' NO ' taking in to account of   the image shown. only and not of the animal ..",14,"BI2A00002","probably no",-2,1814,"india"
"207","sense","A11309DDKSLTVL","grad_some",NA,"asian_southAsian","male",57,"christianity_protestant","This is capable of sensing nearby things. "," Most of the images shown are animal fur ,closeups... I have marked ' NO ' taking in to account of   the image shown. only and not of the animal ..",15,"BI2A00034","definitely no",-3,2714,"india"
"208","sense","A11309DDKSLTVL","grad_some",NA,"asian_southAsian","male",57,"christianity_protestant","This is capable of sensing nearby things. "," Most of the images shown are animal fur ,closeups... I have marked ' NO ' taking in to account of   the image shown. only and not of the animal ..",16,"BI2A00004","probably no",-2,1834,"india"
"209","sense","A11309DDKSLTVL","grad_some",NA,"asian_southAsian","male",57,"christianity_protestant","This is capable of sensing nearby things. "," Most of the images shown are animal fur ,closeups... I have marked ' NO ' taking in to account of   the image shown. only and not of the animal ..",17,"BI2A00032","definitely no",-3,5321,"india"
"210","sense","A11309DDKSLTVL","grad_some",NA,"asian_southAsian","male",57,"christianity_protestant","This is capable of sensing nearby things. "," Most of the images shown are animal fur ,closeups... I have marked ' NO ' taking in to account of   the image shown. only and not of the animal ..",18,"BI2A00017","definitely no",-3,1340,"india"
"211","sense","A11309DDKSLTVL","grad_some",NA,"asian_southAsian","male",57,"christianity_protestant","This is capable of sensing nearby things. "," Most of the images shown are animal fur ,closeups... I have marked ' NO ' taking in to account of   the image shown. only and not of the animal ..",19,"BI2A00008","probably no",-2,3084,"india"
"212","sense","A11309DDKSLTVL","grad_some",NA,"asian_southAsian","male",57,"christianity_protestant","This is capable of sensing nearby things. "," Most of the images shown are animal fur ,closeups... I have marked ' NO ' taking in to account of   the image shown. only and not of the animal ..",20,"BI2A00033","definitely no",-3,953,"india"
"213","sense","A11309DDKSLTVL","grad_some",NA,"asian_southAsian","male",57,"christianity_protestant","This is capable of sensing nearby things. "," Most of the images shown are animal fur ,closeups... I have marked ' NO ' taking in to account of   the image shown. only and not of the animal ..",21,"BI2A00010","definitely no",-3,3315,"india"
"214","sense","A11309DDKSLTVL","grad_some",NA,"asian_southAsian","male",57,"christianity_protestant","This is capable of sensing nearby things. "," Most of the images shown are animal fur ,closeups... I have marked ' NO ' taking in to account of   the image shown. only and not of the animal ..",22,"BI2A00044","definitely no",-3,947,"india"
"215","sense","A11309DDKSLTVL","grad_some",NA,"asian_southAsian","male",57,"christianity_protestant","This is capable of sensing nearby things. "," Most of the images shown are animal fur ,closeups... I have marked ' NO ' taking in to account of   the image shown. only and not of the animal ..",23,"BI2A00037","definitely no",-3,1250,"india"
"216","sense","A11309DDKSLTVL","grad_some",NA,"asian_southAsian","male",57,"christianity_protestant","This is capable of sensing nearby things. "," Most of the images shown are animal fur ,closeups... I have marked ' NO ' taking in to account of   the image shown. only and not of the animal ..",24,"BI2A00018","definitely no",-3,822,"india"
"217","sense","A11309DDKSLTVL","grad_some",NA,"asian_southAsian","male",57,"christianity_protestant","This is capable of sensing nearby things. "," Most of the images shown are animal fur ,closeups... I have marked ' NO ' taking in to account of   the image shown. only and not of the animal ..",25,"BI2A00006","probably no",-2,1512,"india"
"218","sense","A11309DDKSLTVL","grad_some",NA,"asian_southAsian","male",57,"christianity_protestant","This is capable of sensing nearby things. "," Most of the images shown are animal fur ,closeups... I have marked ' NO ' taking in to account of   the image shown. only and not of the animal ..",26,"BI2A00013","probably no",-2,1175,"india"
"219","sense","A11309DDKSLTVL","grad_some",NA,"asian_southAsian","male",57,"christianity_protestant","This is capable of sensing nearby things. "," Most of the images shown are animal fur ,closeups... I have marked ' NO ' taking in to account of   the image shown. only and not of the animal ..",27,"BI2A00039","definitely no",-3,1295,"india"
"220","sense","A11309DDKSLTVL","grad_some",NA,"asian_southAsian","male",57,"christianity_protestant","This is capable of sensing nearby things. "," Most of the images shown are animal fur ,closeups... I have marked ' NO ' taking in to account of   the image shown. only and not of the animal ..",28,"BI2A00016","definitely no",-3,2732,"india"
"221","sense","A11309DDKSLTVL","grad_some",NA,"asian_southAsian","male",57,"christianity_protestant","This is capable of sensing nearby things. "," Most of the images shown are animal fur ,closeups... I have marked ' NO ' taking in to account of   the image shown. only and not of the animal ..",29,"BI2A00045","definitely no",-3,1108,"india"
"222","sense","A11309DDKSLTVL","grad_some",NA,"asian_southAsian","male",57,"christianity_protestant","This is capable of sensing nearby things. "," Most of the images shown are animal fur ,closeups... I have marked ' NO ' taking in to account of   the image shown. only and not of the animal ..",30,"BI2A00023","definitely no",-3,2703,"india"
"223","sense","A11309DDKSLTVL","grad_some",NA,"asian_southAsian","male",57,"christianity_protestant","This is capable of sensing nearby things. "," Most of the images shown are animal fur ,closeups... I have marked ' NO ' taking in to account of   the image shown. only and not of the animal ..",31,"BI2A00027","definitely no",-3,1454,"india"
"224","sense","A11309DDKSLTVL","grad_some",NA,"asian_southAsian","male",57,"christianity_protestant","This is capable of sensing nearby things. "," Most of the images shown are animal fur ,closeups... I have marked ' NO ' taking in to account of   the image shown. only and not of the animal ..",32,"BI2A00011","probably no",-2,5683,"india"
"225","sense","A11309DDKSLTVL","grad_some",NA,"asian_southAsian","male",57,"christianity_protestant","This is capable of sensing nearby things. "," Most of the images shown are animal fur ,closeups... I have marked ' NO ' taking in to account of   the image shown. only and not of the animal ..",33,"BI2A00038","definitely no",-3,1328,"india"
"226","sense","A11309DDKSLTVL","grad_some",NA,"asian_southAsian","male",57,"christianity_protestant","This is capable of sensing nearby things. "," Most of the images shown are animal fur ,closeups... I have marked ' NO ' taking in to account of   the image shown. only and not of the animal ..",34,"BI2A00026","probably no",-2,1915,"india"
"227","sense","A11309DDKSLTVL","grad_some",NA,"asian_southAsian","male",57,"christianity_protestant","This is capable of sensing nearby things. "," Most of the images shown are animal fur ,closeups... I have marked ' NO ' taking in to account of   the image shown. only and not of the animal ..",35,"BI2A00009","probably no",-2,1411,"india"
"228","sense","A11309DDKSLTVL","grad_some",NA,"asian_southAsian","male",57,"christianity_protestant","This is capable of sensing nearby things. "," Most of the images shown are animal fur ,closeups... I have marked ' NO ' taking in to account of   the image shown. only and not of the animal ..",36,"BI2A00022","probably no",-2,1748,"india"
"229","sense","A11309DDKSLTVL","grad_some",NA,"asian_southAsian","male",57,"christianity_protestant","This is capable of sensing nearby things. "," Most of the images shown are animal fur ,closeups... I have marked ' NO ' taking in to account of   the image shown. only and not of the animal ..",37,"BI2A00028","definitely no",-3,1944,"india"
"230","sense","A11309DDKSLTVL","grad_some",NA,"asian_southAsian","male",57,"christianity_protestant","This is capable of sensing nearby things. "," Most of the images shown are animal fur ,closeups... I have marked ' NO ' taking in to account of   the image shown. only and not of the animal ..",38,"BI2A00014","definitely no",-3,829,"india"
"231","sense","A11309DDKSLTVL","grad_some",NA,"asian_southAsian","male",57,"christianity_protestant","This is capable of sensing nearby things. "," Most of the images shown are animal fur ,closeups... I have marked ' NO ' taking in to account of   the image shown. only and not of the animal ..",39,"BI2A00020","definitely no",-3,2005,"india"
"232","sense","A11309DDKSLTVL","grad_some",NA,"asian_southAsian","male",57,"christianity_protestant","This is capable of sensing nearby things. "," Most of the images shown are animal fur ,closeups... I have marked ' NO ' taking in to account of   the image shown. only and not of the animal ..",40,"BI2A00012","definitely no",-3,1268,"india"
"233","sense","A11309DDKSLTVL","grad_some",NA,"asian_southAsian","male",57,"christianity_protestant","This is capable of sensing nearby things. "," Most of the images shown are animal fur ,closeups... I have marked ' NO ' taking in to account of   the image shown. only and not of the animal ..",41,"BI2A00030","definitely no",-3,940,"india"
"234","sense","A11309DDKSLTVL","grad_some",NA,"asian_southAsian","male",57,"christianity_protestant","This is capable of sensing nearby things. "," Most of the images shown are animal fur ,closeups... I have marked ' NO ' taking in to account of   the image shown. only and not of the animal ..",42,"BI2A00036","definitely no",-3,1274,"india"
"235","sense","A11309DDKSLTVL","grad_some",NA,"asian_southAsian","male",57,"christianity_protestant","This is capable of sensing nearby things. "," Most of the images shown are animal fur ,closeups... I have marked ' NO ' taking in to account of   the image shown. only and not of the animal ..",43,"BI2A00042","definitely no",-3,1926,"india"
"236","sense","A11309DDKSLTVL","grad_some",NA,"asian_southAsian","male",57,"christianity_protestant","This is capable of sensing nearby things. "," Most of the images shown are animal fur ,closeups... I have marked ' NO ' taking in to account of   the image shown. only and not of the animal ..",44,"BI2A00043","definitely no",-3,1511,"india"
"237","sense","A11309DDKSLTVL","grad_some",NA,"asian_southAsian","male",57,"christianity_protestant","This is capable of sensing nearby things. "," Most of the images shown are animal fur ,closeups... I have marked ' NO ' taking in to account of   the image shown. only and not of the animal ..",45,"BI2A00040","definitely no",-3,760,"india"
"238","sense","A11309DDKSLTVL","grad_some",NA,"asian_southAsian","male",57,"christianity_protestant","This is capable of sensing nearby things. "," Most of the images shown are animal fur ,closeups... I have marked ' NO ' taking in to account of   the image shown. only and not of the animal ..",46,"BI2A00031","definitely no",-3,874,"india"
"239","sense","A11309DDKSLTVL","grad_some",NA,"asian_southAsian","male",57,"christianity_protestant","This is capable of sensing nearby things. "," Most of the images shown are animal fur ,closeups... I have marked ' NO ' taking in to account of   the image shown. only and not of the animal ..",47,"BI2A00015","definitely no",-3,1065,"india"
"240","sense","A11309DDKSLTVL","grad_some",NA,"asian_southAsian","male",57,"christianity_protestant","This is capable of sensing nearby things. "," Most of the images shown are animal fur ,closeups... I have marked ' NO ' taking in to account of   the image shown. only and not of the animal ..",48,"BI2A00021","definitely no",-3,1262,"india"
"241","think","A22847MKXI8ZYQ","college_bachDegree",NA,"asian_southAsian","female",33,"hinduism","i can think this one","",1,"BI2A00042","maybe no",-1,7949,"india"
"242","think","A22847MKXI8ZYQ","college_bachDegree",NA,"asian_southAsian","female",33,"hinduism","i can think this one","",2,"BI2A00008","probably yes",2,2611,"india"
"243","think","A22847MKXI8ZYQ","college_bachDegree",NA,"asian_southAsian","female",33,"hinduism","i can think this one","",3,"BI2A00003","probably yes",2,1608,"india"
"244","think","A22847MKXI8ZYQ","college_bachDegree",NA,"asian_southAsian","female",33,"hinduism","i can think this one","",4,"BI2A00030","definitely no",-3,1683,"india"
"245","think","A22847MKXI8ZYQ","college_bachDegree",NA,"asian_southAsian","female",33,"hinduism","i can think this one","",5,"BI2A00014","definitely no",-3,1272,"india"
"246","think","A22847MKXI8ZYQ","college_bachDegree",NA,"asian_southAsian","female",33,"hinduism","i can think this one","",6,"BI2A00037","definitely no",-3,1358,"india"
"247","think","A22847MKXI8ZYQ","college_bachDegree",NA,"asian_southAsian","female",33,"hinduism","i can think this one","",7,"BI2A00004","maybe yes",1,1788,"india"
"248","think","A22847MKXI8ZYQ","college_bachDegree",NA,"asian_southAsian","female",33,"hinduism","i can think this one","",8,"BI2A00034","definitely no",-3,2861,"india"
"249","think","A22847MKXI8ZYQ","college_bachDegree",NA,"asian_southAsian","female",33,"hinduism","i can think this one","",9,"BI2A00019","definitely no",-3,1534,"india"
"250","think","A22847MKXI8ZYQ","college_bachDegree",NA,"asian_southAsian","female",33,"hinduism","i can think this one","",10,"BI2A00017","definitely no",-3,746,"india"
"251","think","A22847MKXI8ZYQ","college_bachDegree",NA,"asian_southAsian","female",33,"hinduism","i can think this one","",11,"BI2A00024","definitely no",-3,1490,"india"
"252","think","A22847MKXI8ZYQ","college_bachDegree",NA,"asian_southAsian","female",33,"hinduism","i can think this one","",12,"BI2A00040","maybe yes",1,3026,"india"
"253","think","A22847MKXI8ZYQ","college_bachDegree",NA,"asian_southAsian","female",33,"hinduism","i can think this one","",13,"BI2A00039","definitely no",-3,1519,"india"
"254","think","A22847MKXI8ZYQ","college_bachDegree",NA,"asian_southAsian","female",33,"hinduism","i can think this one","",14,"BI2A00026","definitely no",-3,2485,"india"
"255","think","A22847MKXI8ZYQ","college_bachDegree",NA,"asian_southAsian","female",33,"hinduism","i can think this one","",15,"BI2A00029","probably yes",2,2230,"india"
"256","think","A22847MKXI8ZYQ","college_bachDegree",NA,"asian_southAsian","female",33,"hinduism","i can think this one","",16,"BI2A00007","probably yes",2,1241,"india"
"257","think","A22847MKXI8ZYQ","college_bachDegree",NA,"asian_southAsian","female",33,"hinduism","i can think this one","",17,"BI2A00047","definitely no",-3,2181,"india"
"258","think","A22847MKXI8ZYQ","college_bachDegree",NA,"asian_southAsian","female",33,"hinduism","i can think this one","",18,"BI2A00032","definitely no",-3,1288,"india"
"259","think","A22847MKXI8ZYQ","college_bachDegree",NA,"asian_southAsian","female",33,"hinduism","i can think this one","",19,"BI2A00021","definitely no",-3,699,"india"
"260","think","A22847MKXI8ZYQ","college_bachDegree",NA,"asian_southAsian","female",33,"hinduism","i can think this one","",20,"BI2A00044","definitely no",-3,710,"india"
"261","think","A22847MKXI8ZYQ","college_bachDegree",NA,"asian_southAsian","female",33,"hinduism","i can think this one","",21,"BI2A00018","definitely no",-3,759,"india"
"262","think","A22847MKXI8ZYQ","college_bachDegree",NA,"asian_southAsian","female",33,"hinduism","i can think this one","",22,"BI2A00043","definitely no",-3,749,"india"
"263","think","A22847MKXI8ZYQ","college_bachDegree",NA,"asian_southAsian","female",33,"hinduism","i can think this one","",23,"BI2A00025","definitely no",-3,868,"india"
"264","think","A22847MKXI8ZYQ","college_bachDegree",NA,"asian_southAsian","female",33,"hinduism","i can think this one","",24,"BI2A00022","definitely no",-3,714,"india"
"265","think","A22847MKXI8ZYQ","college_bachDegree",NA,"asian_southAsian","female",33,"hinduism","i can think this one","",25,"BI2A00023","definitely no",-3,841,"india"
"266","think","A22847MKXI8ZYQ","college_bachDegree",NA,"asian_southAsian","female",33,"hinduism","i can think this one","",26,"BI2A00028","definitely no",-3,772,"india"
"267","think","A22847MKXI8ZYQ","college_bachDegree",NA,"asian_southAsian","female",33,"hinduism","i can think this one","",27,"BI2A00035","probably yes",2,1934,"india"
"268","think","A22847MKXI8ZYQ","college_bachDegree",NA,"asian_southAsian","female",33,"hinduism","i can think this one","",28,"BI2A00012","definitely no",-3,1706,"india"
"269","think","A22847MKXI8ZYQ","college_bachDegree",NA,"asian_southAsian","female",33,"hinduism","i can think this one","",29,"BI2A00020","definitely no",-3,818,"india"
"270","think","A22847MKXI8ZYQ","college_bachDegree",NA,"asian_southAsian","female",33,"hinduism","i can think this one","",30,"BI2A00002","definitely no",-3,735,"india"
"271","think","A22847MKXI8ZYQ","college_bachDegree",NA,"asian_southAsian","female",33,"hinduism","i can think this one","",31,"BI2A00013","maybe yes",1,1832,"india"
"272","think","A22847MKXI8ZYQ","college_bachDegree",NA,"asian_southAsian","female",33,"hinduism","i can think this one","",32,"BI2A00006","definitely no",-3,1659,"india"
"273","think","A22847MKXI8ZYQ","college_bachDegree",NA,"asian_southAsian","female",33,"hinduism","i can think this one","",33,"BI2A00011","definitely no",-3,915,"india"
"274","think","A22847MKXI8ZYQ","college_bachDegree",NA,"asian_southAsian","female",33,"hinduism","i can think this one","",34,"BI2A00027","definitely no",-3,788,"india"
"275","think","A22847MKXI8ZYQ","college_bachDegree",NA,"asian_southAsian","female",33,"hinduism","i can think this one","",35,"BI2A00009","definitely no",-3,1012,"india"
"276","think","A22847MKXI8ZYQ","college_bachDegree",NA,"asian_southAsian","female",33,"hinduism","i can think this one","",36,"BI2A00005","definitely no",-3,1027,"india"
"277","think","A22847MKXI8ZYQ","college_bachDegree",NA,"asian_southAsian","female",33,"hinduism","i can think this one","",37,"BI2A00016","maybe yes",1,1710,"india"
"278","think","A22847MKXI8ZYQ","college_bachDegree",NA,"asian_southAsian","female",33,"hinduism","i can think this one","",38,"BI2A00015","definitely no",-3,1026,"india"
"279","think","A22847MKXI8ZYQ","college_bachDegree",NA,"asian_southAsian","female",33,"hinduism","i can think this one","",39,"BI2A00041","definitely no",-3,1877,"india"
"280","think","A22847MKXI8ZYQ","college_bachDegree",NA,"asian_southAsian","female",33,"hinduism","i can think this one","",40,"BI2A00045","maybe yes",1,3874,"india"
"281","think","A22847MKXI8ZYQ","college_bachDegree",NA,"asian_southAsian","female",33,"hinduism","i can think this one","",41,"BI2A00001","definitely no",-3,965,"india"
"282","think","A22847MKXI8ZYQ","college_bachDegree",NA,"asian_southAsian","female",33,"hinduism","i can think this one","",42,"BI2A00038","definitely no",-3,1402,"india"
"283","think","A22847MKXI8ZYQ","college_bachDegree",NA,"asian_southAsian","female",33,"hinduism","i can think this one","",43,"BI2A00031","definitely no",-3,1073,"india"
"284","think","A22847MKXI8ZYQ","college_bachDegree",NA,"asian_southAsian","female",33,"hinduism","i can think this one","",44,"BI2A00033","definitely no",-3,797,"india"
"285","think","A22847MKXI8ZYQ","college_bachDegree",NA,"asian_southAsian","female",33,"hinduism","i can think this one","",45,"BI2A00010","definitely no",-3,1848,"india"
"286","think","A22847MKXI8ZYQ","college_bachDegree",NA,"asian_southAsian","female",33,"hinduism","i can think this one","",46,"BI2A00036","maybe yes",1,2287,"india"
"287","think","A22847MKXI8ZYQ","college_bachDegree",NA,"asian_southAsian","female",33,"hinduism","i can think this one","",47,"BI2A00048","definitely no",-3,1730,"india"
"288","think","A22847MKXI8ZYQ","college_bachDegree",NA,"asian_southAsian","female",33,"hinduism","i can think this one","",48,"BI2A00046","maybe yes",1,1462,"india"
"289","pain","A1QWJ95BLHFCOL","college_bachDegree",NA,"asian_southAsian","female",33,"islam","According to me, this object can feel pain","No. Thank you.",1,"BI2A00011","definitely yes",3,7597,"india"
"290","pain","A1QWJ95BLHFCOL","college_bachDegree",NA,"asian_southAsian","female",33,"islam","According to me, this object can feel pain","No. Thank you.",2,"BI2A00041","definitely yes",3,8068,"india"
"291","pain","A1QWJ95BLHFCOL","college_bachDegree",NA,"asian_southAsian","female",33,"islam","According to me, this object can feel pain","No. Thank you.",3,"BI2A00040","definitely yes",3,3188,"india"
"292","pain","A1QWJ95BLHFCOL","college_bachDegree",NA,"asian_southAsian","female",33,"islam","According to me, this object can feel pain","No. Thank you.",4,"BI2A00006","maybe yes",1,3516,"india"
"293","pain","A1QWJ95BLHFCOL","college_bachDegree",NA,"asian_southAsian","female",33,"islam","According to me, this object can feel pain","No. Thank you.",5,"BI2A00023","maybe no",-1,3572,"india"
"294","pain","A1QWJ95BLHFCOL","college_bachDegree",NA,"asian_southAsian","female",33,"islam","According to me, this object can feel pain","No. Thank you.",6,"BI2A00045","maybe no",-1,2101,"india"
"295","pain","A1QWJ95BLHFCOL","college_bachDegree",NA,"asian_southAsian","female",33,"islam","According to me, this object can feel pain","No. Thank you.",7,"BI2A00019","maybe yes",1,2620,"india"
"296","pain","A1QWJ95BLHFCOL","college_bachDegree",NA,"asian_southAsian","female",33,"islam","According to me, this object can feel pain","No. Thank you.",8,"BI2A00027","definitely no",-3,2484,"india"
"297","pain","A1QWJ95BLHFCOL","college_bachDegree",NA,"asian_southAsian","female",33,"islam","According to me, this object can feel pain","No. Thank you.",9,"BI2A00046","definitely no",-3,1893,"india"
"298","pain","A1QWJ95BLHFCOL","college_bachDegree",NA,"asian_southAsian","female",33,"islam","According to me, this object can feel pain","No. Thank you.",10,"BI2A00002","maybe yes",1,2253,"india"
"299","pain","A1QWJ95BLHFCOL","college_bachDegree",NA,"asian_southAsian","female",33,"islam","According to me, this object can feel pain","No. Thank you.",11,"BI2A00039","maybe yes",1,2628,"india"
"300","pain","A1QWJ95BLHFCOL","college_bachDegree",NA,"asian_southAsian","female",33,"islam","According to me, this object can feel pain","No. Thank you.",12,"BI2A00030","maybe yes",1,2298,"india"
"301","pain","A1QWJ95BLHFCOL","college_bachDegree",NA,"asian_southAsian","female",33,"islam","According to me, this object can feel pain","No. Thank you.",13,"BI2A00044","maybe yes",1,2645,"india"
"302","pain","A1QWJ95BLHFCOL","college_bachDegree",NA,"asian_southAsian","female",33,"islam","According to me, this object can feel pain","No. Thank you.",14,"BI2A00009","probably yes",2,2196,"india"
"303","pain","A1QWJ95BLHFCOL","college_bachDegree",NA,"asian_southAsian","female",33,"islam","According to me, this object can feel pain","No. Thank you.",15,"BI2A00015","probably yes",2,2604,"india"
"304","pain","A1QWJ95BLHFCOL","college_bachDegree",NA,"asian_southAsian","female",33,"islam","According to me, this object can feel pain","No. Thank you.",16,"BI2A00012","probably yes",2,1652,"india"
"305","pain","A1QWJ95BLHFCOL","college_bachDegree",NA,"asian_southAsian","female",33,"islam","According to me, this object can feel pain","No. Thank you.",17,"BI2A00010","probably yes",2,2764,"india"
"306","pain","A1QWJ95BLHFCOL","college_bachDegree",NA,"asian_southAsian","female",33,"islam","According to me, this object can feel pain","No. Thank you.",18,"BI2A00024","maybe no",-1,3149,"india"
"307","pain","A1QWJ95BLHFCOL","college_bachDegree",NA,"asian_southAsian","female",33,"islam","According to me, this object can feel pain","No. Thank you.",19,"BI2A00020","probably no",-2,2516,"india"
"308","pain","A1QWJ95BLHFCOL","college_bachDegree",NA,"asian_southAsian","female",33,"islam","According to me, this object can feel pain","No. Thank you.",20,"BI2A00043","probably no",-2,1454,"india"
"309","pain","A1QWJ95BLHFCOL","college_bachDegree",NA,"asian_southAsian","female",33,"islam","According to me, this object can feel pain","No. Thank you.",21,"BI2A00004","maybe yes",1,2165,"india"
"310","pain","A1QWJ95BLHFCOL","college_bachDegree",NA,"asian_southAsian","female",33,"islam","According to me, this object can feel pain","No. Thank you.",22,"BI2A00001","maybe no",-1,3900,"india"
"311","pain","A1QWJ95BLHFCOL","college_bachDegree",NA,"asian_southAsian","female",33,"islam","According to me, this object can feel pain","No. Thank you.",23,"BI2A00003","maybe yes",1,2677,"india"
"312","pain","A1QWJ95BLHFCOL","college_bachDegree",NA,"asian_southAsian","female",33,"islam","According to me, this object can feel pain","No. Thank you.",24,"BI2A00033","definitely no",-3,4492,"india"
"313","pain","A1QWJ95BLHFCOL","college_bachDegree",NA,"asian_southAsian","female",33,"islam","According to me, this object can feel pain","No. Thank you.",25,"BI2A00007","maybe yes",1,2701,"india"
"314","pain","A1QWJ95BLHFCOL","college_bachDegree",NA,"asian_southAsian","female",33,"islam","According to me, this object can feel pain","No. Thank you.",26,"BI2A00008","maybe yes",1,5461,"india"
"315","pain","A1QWJ95BLHFCOL","college_bachDegree",NA,"asian_southAsian","female",33,"islam","According to me, this object can feel pain","No. Thank you.",27,"BI2A00014","definitely no",-3,2579,"india"
"316","pain","A1QWJ95BLHFCOL","college_bachDegree",NA,"asian_southAsian","female",33,"islam","According to me, this object can feel pain","No. Thank you.",28,"BI2A00035","definitely no",-3,1085,"india"
"317","pain","A1QWJ95BLHFCOL","college_bachDegree",NA,"asian_southAsian","female",33,"islam","According to me, this object can feel pain","No. Thank you.",29,"BI2A00029","definitely no",-3,1245,"india"
"318","pain","A1QWJ95BLHFCOL","college_bachDegree",NA,"asian_southAsian","female",33,"islam","According to me, this object can feel pain","No. Thank you.",30,"BI2A00028","definitely no",-3,1620,"india"
"319","pain","A1QWJ95BLHFCOL","college_bachDegree",NA,"asian_southAsian","female",33,"islam","According to me, this object can feel pain","No. Thank you.",31,"BI2A00005","maybe no",-1,4003,"india"
"320","pain","A1QWJ95BLHFCOL","college_bachDegree",NA,"asian_southAsian","female",33,"islam","According to me, this object can feel pain","No. Thank you.",32,"BI2A00042","maybe no",-1,1324,"india"
"321","pain","A1QWJ95BLHFCOL","college_bachDegree",NA,"asian_southAsian","female",33,"islam","According to me, this object can feel pain","No. Thank you.",33,"BI2A00018","definitely no",-3,1732,"india"
"322","pain","A1QWJ95BLHFCOL","college_bachDegree",NA,"asian_southAsian","female",33,"islam","According to me, this object can feel pain","No. Thank you.",34,"BI2A00022","definitely no",-3,2621,"india"
"323","pain","A1QWJ95BLHFCOL","college_bachDegree",NA,"asian_southAsian","female",33,"islam","According to me, this object can feel pain","No. Thank you.",35,"BI2A00025","maybe no",-1,2668,"india"
"324","pain","A1QWJ95BLHFCOL","college_bachDegree",NA,"asian_southAsian","female",33,"islam","According to me, this object can feel pain","No. Thank you.",36,"BI2A00013","maybe yes",1,2251,"india"
"325","pain","A1QWJ95BLHFCOL","college_bachDegree",NA,"asian_southAsian","female",33,"islam","According to me, this object can feel pain","No. Thank you.",37,"BI2A00031","definitely no",-3,1964,"india"
"326","pain","A1QWJ95BLHFCOL","college_bachDegree",NA,"asian_southAsian","female",33,"islam","According to me, this object can feel pain","No. Thank you.",38,"BI2A00026","maybe no",-1,1947,"india"
"327","pain","A1QWJ95BLHFCOL","college_bachDegree",NA,"asian_southAsian","female",33,"islam","According to me, this object can feel pain","No. Thank you.",39,"BI2A00038","maybe no",-1,1316,"india"
"328","pain","A1QWJ95BLHFCOL","college_bachDegree",NA,"asian_southAsian","female",33,"islam","According to me, this object can feel pain","No. Thank you.",40,"BI2A00032","definitely no",-3,1948,"india"
"329","pain","A1QWJ95BLHFCOL","college_bachDegree",NA,"asian_southAsian","female",33,"islam","According to me, this object can feel pain","No. Thank you.",41,"BI2A00048","definitely no",-3,1372,"india"
"330","pain","A1QWJ95BLHFCOL","college_bachDegree",NA,"asian_southAsian","female",33,"islam","According to me, this object can feel pain","No. Thank you.",42,"BI2A00021","definitely no",-3,1156,"india"
"331","pain","A1QWJ95BLHFCOL","college_bachDegree",NA,"asian_southAsian","female",33,"islam","According to me, this object can feel pain","No. Thank you.",43,"BI2A00047","definitely no",-3,2180,"india"
"332","pain","A1QWJ95BLHFCOL","college_bachDegree",NA,"asian_southAsian","female",33,"islam","According to me, this object can feel pain","No. Thank you.",44,"BI2A00037","definitely no",-3,2348,"india"
"333","pain","A1QWJ95BLHFCOL","college_bachDegree",NA,"asian_southAsian","female",33,"islam","According to me, this object can feel pain","No. Thank you.",45,"BI2A00036","maybe no",-1,4428,"india"
"334","pain","A1QWJ95BLHFCOL","college_bachDegree",NA,"asian_southAsian","female",33,"islam","According to me, this object can feel pain","No. Thank you.",46,"BI2A00034","maybe no",-1,2171,"india"
"335","pain","A1QWJ95BLHFCOL","college_bachDegree",NA,"asian_southAsian","female",33,"islam","According to me, this object can feel pain","No. Thank you.",47,"BI2A00016","probably no",-2,3093,"india"
"336","pain","A1QWJ95BLHFCOL","college_bachDegree",NA,"asian_southAsian","female",33,"islam","According to me, this object can feel pain","No. Thank you.",48,"BI2A00017","definitely no",-3,2924,"india"
"337","emotions","A2RQAC088VPIZ5","college_bachDegree",NA,"asian_otherAsian","male",24,"hinduism","this one feel emotions to me","I think this should be a little bit more clear",1,"BI2A00016","maybe yes",1,18068,"india"
"338","emotions","A2RQAC088VPIZ5","college_bachDegree",NA,"asian_otherAsian","male",24,"hinduism","this one feel emotions to me","I think this should be a little bit more clear",2,"BI2A00029","equally yes/no",0,7107,"india"
"339","emotions","A2RQAC088VPIZ5","college_bachDegree",NA,"asian_otherAsian","male",24,"hinduism","this one feel emotions to me","I think this should be a little bit more clear",3,"BI2A00039","maybe no",-1,6876,"india"
"340","emotions","A2RQAC088VPIZ5","college_bachDegree",NA,"asian_otherAsian","male",24,"hinduism","this one feel emotions to me","I think this should be a little bit more clear",4,"BI2A00010","probably no",-2,3055,"india"
"341","emotions","A2RQAC088VPIZ5","college_bachDegree",NA,"asian_otherAsian","male",24,"hinduism","this one feel emotions to me","I think this should be a little bit more clear",5,"BI2A00013","maybe yes",1,1762,"india"
"342","emotions","A2RQAC088VPIZ5","college_bachDegree",NA,"asian_otherAsian","male",24,"hinduism","this one feel emotions to me","I think this should be a little bit more clear",6,"BI2A00008","maybe yes",1,1848,"india"
"343","emotions","A2RQAC088VPIZ5","college_bachDegree",NA,"asian_otherAsian","male",24,"hinduism","this one feel emotions to me","I think this should be a little bit more clear",7,"BI2A00042","probably no",-2,3054,"india"
"344","emotions","A2RQAC088VPIZ5","college_bachDegree",NA,"asian_otherAsian","male",24,"hinduism","this one feel emotions to me","I think this should be a little bit more clear",8,"BI2A00044","equally yes/no",0,2353,"india"
"345","emotions","A2RQAC088VPIZ5","college_bachDegree",NA,"asian_otherAsian","male",24,"hinduism","this one feel emotions to me","I think this should be a little bit more clear",9,"BI2A00036","probably no",-2,3461,"india"
"346","emotions","A2RQAC088VPIZ5","college_bachDegree",NA,"asian_otherAsian","male",24,"hinduism","this one feel emotions to me","I think this should be a little bit more clear",10,"BI2A00034","maybe yes",1,2352,"india"
"347","emotions","A2RQAC088VPIZ5","college_bachDegree",NA,"asian_otherAsian","male",24,"hinduism","this one feel emotions to me","I think this should be a little bit more clear",11,"BI2A00001","probably yes",2,2020,"india"
"348","emotions","A2RQAC088VPIZ5","college_bachDegree",NA,"asian_otherAsian","male",24,"hinduism","this one feel emotions to me","I think this should be a little bit more clear",12,"BI2A00002","probably yes",2,1749,"india"
"349","emotions","A2RQAC088VPIZ5","college_bachDegree",NA,"asian_otherAsian","male",24,"hinduism","this one feel emotions to me","I think this should be a little bit more clear",13,"BI2A00011","definitely yes",3,3771,"india"
"350","emotions","A2RQAC088VPIZ5","college_bachDegree",NA,"asian_otherAsian","male",24,"hinduism","this one feel emotions to me","I think this should be a little bit more clear",14,"BI2A00003","probably yes",2,5163,"india"
"351","emotions","A2RQAC088VPIZ5","college_bachDegree",NA,"asian_otherAsian","male",24,"hinduism","this one feel emotions to me","I think this should be a little bit more clear",15,"BI2A00004","equally yes/no",0,2131,"india"
"352","emotions","A2RQAC088VPIZ5","college_bachDegree",NA,"asian_otherAsian","male",24,"hinduism","this one feel emotions to me","I think this should be a little bit more clear",16,"BI2A00014","maybe no",-1,2821,"india"
"353","emotions","A2RQAC088VPIZ5","college_bachDegree",NA,"asian_otherAsian","male",24,"hinduism","this one feel emotions to me","I think this should be a little bit more clear",17,"BI2A00046","definitely no",-3,1453,"india"
"354","emotions","A2RQAC088VPIZ5","college_bachDegree",NA,"asian_otherAsian","male",24,"hinduism","this one feel emotions to me","I think this should be a little bit more clear",18,"BI2A00019","maybe no",-1,7433,"india"
"355","emotions","A2RQAC088VPIZ5","college_bachDegree",NA,"asian_otherAsian","male",24,"hinduism","this one feel emotions to me","I think this should be a little bit more clear",19,"BI2A00041","probably no",-2,1626,"india"
"356","emotions","A2RQAC088VPIZ5","college_bachDegree",NA,"asian_otherAsian","male",24,"hinduism","this one feel emotions to me","I think this should be a little bit more clear",20,"BI2A00025","probably no",-2,1601,"india"
"357","emotions","A2RQAC088VPIZ5","college_bachDegree",NA,"asian_otherAsian","male",24,"hinduism","this one feel emotions to me","I think this should be a little bit more clear",21,"BI2A00030","probably no",-2,1145,"india"
"358","emotions","A2RQAC088VPIZ5","college_bachDegree",NA,"asian_otherAsian","male",24,"hinduism","this one feel emotions to me","I think this should be a little bit more clear",22,"BI2A00023","maybe no",-1,2711,"india"
"359","emotions","A2RQAC088VPIZ5","college_bachDegree",NA,"asian_otherAsian","male",24,"hinduism","this one feel emotions to me","I think this should be a little bit more clear",23,"BI2A00035","probably no",-2,1661,"india"
"360","emotions","A2RQAC088VPIZ5","college_bachDegree",NA,"asian_otherAsian","male",24,"hinduism","this one feel emotions to me","I think this should be a little bit more clear",24,"BI2A00024","definitely yes",3,4399,"india"
"361","emotions","A2RQAC088VPIZ5","college_bachDegree",NA,"asian_otherAsian","male",24,"hinduism","this one feel emotions to me","I think this should be a little bit more clear",25,"BI2A00048","maybe no",-1,3155,"india"
"362","emotions","A2RQAC088VPIZ5","college_bachDegree",NA,"asian_otherAsian","male",24,"hinduism","this one feel emotions to me","I think this should be a little bit more clear",26,"BI2A00043","probably no",-2,1281,"india"
"363","emotions","A2RQAC088VPIZ5","college_bachDegree",NA,"asian_otherAsian","male",24,"hinduism","this one feel emotions to me","I think this should be a little bit more clear",27,"BI2A00021","definitely no",-3,1217,"india"
"364","emotions","A2RQAC088VPIZ5","college_bachDegree",NA,"asian_otherAsian","male",24,"hinduism","this one feel emotions to me","I think this should be a little bit more clear",28,"BI2A00020","probably no",-2,1280,"india"
"365","emotions","A2RQAC088VPIZ5","college_bachDegree",NA,"asian_otherAsian","male",24,"hinduism","this one feel emotions to me","I think this should be a little bit more clear",29,"BI2A00015","maybe yes",1,2574,"india"
"366","emotions","A2RQAC088VPIZ5","college_bachDegree",NA,"asian_otherAsian","male",24,"hinduism","this one feel emotions to me","I think this should be a little bit more clear",30,"BI2A00040","probably no",-2,1737,"india"
"367","emotions","A2RQAC088VPIZ5","college_bachDegree",NA,"asian_otherAsian","male",24,"hinduism","this one feel emotions to me","I think this should be a little bit more clear",31,"BI2A00027","probably no",-2,1035,"india"
"368","emotions","A2RQAC088VPIZ5","college_bachDegree",NA,"asian_otherAsian","male",24,"hinduism","this one feel emotions to me","I think this should be a little bit more clear",32,"BI2A00032","equally yes/no",0,4274,"india"
"369","emotions","A2RQAC088VPIZ5","college_bachDegree",NA,"asian_otherAsian","male",24,"hinduism","this one feel emotions to me","I think this should be a little bit more clear",33,"BI2A00033","maybe no",-1,1244,"india"
"370","emotions","A2RQAC088VPIZ5","college_bachDegree",NA,"asian_otherAsian","male",24,"hinduism","this one feel emotions to me","I think this should be a little bit more clear",34,"BI2A00006","probably yes",2,2145,"india"
"371","emotions","A2RQAC088VPIZ5","college_bachDegree",NA,"asian_otherAsian","male",24,"hinduism","this one feel emotions to me","I think this should be a little bit more clear",35,"BI2A00037","maybe no",-1,1452,"india"
"372","emotions","A2RQAC088VPIZ5","college_bachDegree",NA,"asian_otherAsian","male",24,"hinduism","this one feel emotions to me","I think this should be a little bit more clear",36,"BI2A00026","maybe no",-1,1134,"india"
"373","emotions","A2RQAC088VPIZ5","college_bachDegree",NA,"asian_otherAsian","male",24,"hinduism","this one feel emotions to me","I think this should be a little bit more clear",37,"BI2A00047","probably no",-2,1529,"india"
"374","emotions","A2RQAC088VPIZ5","college_bachDegree",NA,"asian_otherAsian","male",24,"hinduism","this one feel emotions to me","I think this should be a little bit more clear",38,"BI2A00005","probably yes",2,2352,"india"
"375","emotions","A2RQAC088VPIZ5","college_bachDegree",NA,"asian_otherAsian","male",24,"hinduism","this one feel emotions to me","I think this should be a little bit more clear",39,"BI2A00007","probably yes",2,1355,"india"
"376","emotions","A2RQAC088VPIZ5","college_bachDegree",NA,"asian_otherAsian","male",24,"hinduism","this one feel emotions to me","I think this should be a little bit more clear",40,"BI2A00009","probably yes",2,1182,"india"
"377","emotions","A2RQAC088VPIZ5","college_bachDegree",NA,"asian_otherAsian","male",24,"hinduism","this one feel emotions to me","I think this should be a little bit more clear",41,"BI2A00018","maybe yes",1,3191,"india"
"378","emotions","A2RQAC088VPIZ5","college_bachDegree",NA,"asian_otherAsian","male",24,"hinduism","this one feel emotions to me","I think this should be a little bit more clear",42,"BI2A00031","probably no",-2,1997,"india"
"379","emotions","A2RQAC088VPIZ5","college_bachDegree",NA,"asian_otherAsian","male",24,"hinduism","this one feel emotions to me","I think this should be a little bit more clear",43,"BI2A00045","definitely no",-3,1379,"india"
"380","emotions","A2RQAC088VPIZ5","college_bachDegree",NA,"asian_otherAsian","male",24,"hinduism","this one feel emotions to me","I think this should be a little bit more clear",44,"BI2A00022","maybe yes",1,2477,"india"
"381","emotions","A2RQAC088VPIZ5","college_bachDegree",NA,"asian_otherAsian","male",24,"hinduism","this one feel emotions to me","I think this should be a little bit more clear",45,"BI2A00038","maybe yes",1,1626,"india"
"382","emotions","A2RQAC088VPIZ5","college_bachDegree",NA,"asian_otherAsian","male",24,"hinduism","this one feel emotions to me","I think this should be a little bit more clear",46,"BI2A00017","maybe no",-1,3155,"india"
"383","emotions","A2RQAC088VPIZ5","college_bachDegree",NA,"asian_otherAsian","male",24,"hinduism","this one feel emotions to me","I think this should be a little bit more clear",47,"BI2A00012","maybe yes",1,2007,"india"
"384","emotions","A2RQAC088VPIZ5","college_bachDegree",NA,"asian_otherAsian","male",24,"hinduism","this one feel emotions to me","I think this should be a little bit more clear",48,"BI2A00028","maybe no",-1,4104,"india"
"385","emotions","A11DVZZE26RU7O","grad_degree",NA,"asian_southAsian","male",40,"hinduism","this one does feel emotions","",1,"BI2A00048","definitely no",-3,5531,"india"
"386","emotions","A11DVZZE26RU7O","grad_degree",NA,"asian_southAsian","male",40,"hinduism","this one does feel emotions","",2,"BI2A00023","definitely no",-3,4379,"india"
"387","emotions","A11DVZZE26RU7O","grad_degree",NA,"asian_southAsian","male",40,"hinduism","this one does feel emotions","",3,"BI2A00045","definitely no",-3,2192,"india"
"388","emotions","A11DVZZE26RU7O","grad_degree",NA,"asian_southAsian","male",40,"hinduism","this one does feel emotions","",4,"BI2A00029","definitely no",-3,2436,"india"
"389","emotions","A11DVZZE26RU7O","grad_degree",NA,"asian_southAsian","male",40,"hinduism","this one does feel emotions","",5,"BI2A00041","definitely no",-3,2386,"india"
"390","emotions","A11DVZZE26RU7O","grad_degree",NA,"asian_southAsian","male",40,"hinduism","this one does feel emotions","",6,"BI2A00037","definitely no",-3,2589,"india"
"391","emotions","A11DVZZE26RU7O","grad_degree",NA,"asian_southAsian","male",40,"hinduism","this one does feel emotions","",7,"BI2A00046","definitely no",-3,922,"india"
"392","emotions","A11DVZZE26RU7O","grad_degree",NA,"asian_southAsian","male",40,"hinduism","this one does feel emotions","",8,"BI2A00015","probably yes",2,3969,"india"
"393","emotions","A11DVZZE26RU7O","grad_degree",NA,"asian_southAsian","male",40,"hinduism","this one does feel emotions","",9,"BI2A00042","definitely no",-3,3375,"india"
"394","emotions","A11DVZZE26RU7O","grad_degree",NA,"asian_southAsian","male",40,"hinduism","this one does feel emotions","",10,"BI2A00020","probably yes",2,2658,"india"
"395","emotions","A11DVZZE26RU7O","grad_degree",NA,"asian_southAsian","male",40,"hinduism","this one does feel emotions","",11,"BI2A00026","probably yes",2,3672,"india"
"396","emotions","A11DVZZE26RU7O","grad_degree",NA,"asian_southAsian","male",40,"hinduism","this one does feel emotions","",12,"BI2A00006","definitely yes",3,4099,"india"
"397","emotions","A11DVZZE26RU7O","grad_degree",NA,"asian_southAsian","male",40,"hinduism","this one does feel emotions","",13,"BI2A00011","definitely yes",3,1506,"india"
"398","emotions","A11DVZZE26RU7O","grad_degree",NA,"asian_southAsian","male",40,"hinduism","this one does feel emotions","",14,"BI2A00004","definitely yes",3,1624,"india"
"399","emotions","A11DVZZE26RU7O","grad_degree",NA,"asian_southAsian","male",40,"hinduism","this one does feel emotions","",15,"BI2A00016","definitely yes",3,1781,"india"
"400","emotions","A11DVZZE26RU7O","grad_degree",NA,"asian_southAsian","male",40,"hinduism","this one does feel emotions","",16,"BI2A00017","definitely no",-3,2135,"india"
"401","emotions","A11DVZZE26RU7O","grad_degree",NA,"asian_southAsian","male",40,"hinduism","this one does feel emotions","",17,"BI2A00032","definitely no",-3,1008,"india"
"402","emotions","A11DVZZE26RU7O","grad_degree",NA,"asian_southAsian","male",40,"hinduism","this one does feel emotions","",18,"BI2A00038","definitely no",-3,1217,"india"
"403","emotions","A11DVZZE26RU7O","grad_degree",NA,"asian_southAsian","male",40,"hinduism","this one does feel emotions","",19,"BI2A00018","definitely no",-3,1376,"india"
"404","emotions","A11DVZZE26RU7O","grad_degree",NA,"asian_southAsian","male",40,"hinduism","this one does feel emotions","",20,"BI2A00001","definitely no",-3,1161,"india"
"405","emotions","A11DVZZE26RU7O","grad_degree",NA,"asian_southAsian","male",40,"hinduism","this one does feel emotions","",21,"BI2A00024","definitely yes",3,2127,"india"
"406","emotions","A11DVZZE26RU7O","grad_degree",NA,"asian_southAsian","male",40,"hinduism","this one does feel emotions","",22,"BI2A00005","definitely yes",3,1550,"india"
"407","emotions","A11DVZZE26RU7O","grad_degree",NA,"asian_southAsian","male",40,"hinduism","this one does feel emotions","",23,"BI2A00034","definitely no",-3,3482,"india"
"408","emotions","A11DVZZE26RU7O","grad_degree",NA,"asian_southAsian","male",40,"hinduism","this one does feel emotions","",24,"BI2A00027","definitely no",-3,1163,"india"
"409","emotions","A11DVZZE26RU7O","grad_degree",NA,"asian_southAsian","male",40,"hinduism","this one does feel emotions","",25,"BI2A00002","maybe yes",1,4088,"india"
"410","emotions","A11DVZZE26RU7O","grad_degree",NA,"asian_southAsian","male",40,"hinduism","this one does feel emotions","",26,"BI2A00007","probably yes",2,2600,"india"
"411","emotions","A11DVZZE26RU7O","grad_degree",NA,"asian_southAsian","male",40,"hinduism","this one does feel emotions","",27,"BI2A00039","definitely no",-3,3030,"india"
"412","emotions","A11DVZZE26RU7O","grad_degree",NA,"asian_southAsian","male",40,"hinduism","this one does feel emotions","",28,"BI2A00014","definitely no",-3,2170,"india"
"413","emotions","A11DVZZE26RU7O","grad_degree",NA,"asian_southAsian","male",40,"hinduism","this one does feel emotions","",29,"BI2A00009","probably yes",2,2052,"india"
"414","emotions","A11DVZZE26RU7O","grad_degree",NA,"asian_southAsian","male",40,"hinduism","this one does feel emotions","",30,"BI2A00043","definitely no",-3,2010,"india"
"415","emotions","A11DVZZE26RU7O","grad_degree",NA,"asian_southAsian","male",40,"hinduism","this one does feel emotions","",31,"BI2A00013","maybe yes",1,3767,"india"
"416","emotions","A11DVZZE26RU7O","grad_degree",NA,"asian_southAsian","male",40,"hinduism","this one does feel emotions","",32,"BI2A00040","definitely no",-3,2077,"india"
"417","emotions","A11DVZZE26RU7O","grad_degree",NA,"asian_southAsian","male",40,"hinduism","this one does feel emotions","",33,"BI2A00035","definitely no",-3,1032,"india"
