,condition,worker_id,education,english_native,ethnicity,gender,age,religion,comp_check,comments,trialNum,swatch,response,responseCoded,rt,country,comp_filter2209,animal,AZIY6IFOS4CVC,college_bachDegree,NA,white,male,26,christianity_catholic,I believe that this one is an animal.,No comments. ,1,BI2A00047,definitely no,-3,7671,us,keep2210,animal,AZIY6IFOS4CVC,college_bachDegree,NA,white,male,26,christianity_catholic,I believe that this one is an animal.,No comments. ,2,BI2A00032,probably yes,2,3781,us,keep2211,animal,AZIY6IFOS4CVC,college_bachDegree,NA,white,male,26,christianity_catholic,I believe that this one is an animal.,No comments. ,3,BI2A00027,maybe no,-1,2676,us,keep2212,animal,AZIY6IFOS4CVC,college_bachDegree,NA,white,male,26,christianity_catholic,I believe that this one is an animal.,No comments. ,4,BI2A00008,definitely yes,3,1850,us,keep2213,animal,AZIY6IFOS4CVC,college_bachDegree,NA,white,male,26,christianity_catholic,I believe that this one is an animal.,No comments. ,5,BI2A00036,definitely no,-3,2085,us,keep2214,animal,AZIY6IFOS4CVC,college_bachDegree,NA,white,male,26,christianity_catholic,I believe that this one is an animal.,No comments. ,6,BI2A00009,definitely yes,3,1838,us,keep2215,animal,AZIY6IFOS4CVC,college_bachDegree,NA,white,male,26,christianity_catholic,I believe that this one is an animal.,No comments. ,7,BI2A00028,probably yes,2,2880,us,keep2216,animal,AZIY6IFOS4CVC,college_bachDegree,NA,white,male,26,christianity_catholic,I believe that this one is an animal.,No comments. ,8,BI2A00037,maybe yes,1,2688,us,keep2217,animal,AZIY6IFOS4CVC,college_bachDegree,NA,white,male,26,christianity_catholic,I believe that this one is an animal.,No comments. ,9,BI2A00041,definitely no,-3,2893,us,keep2218,animal,AZIY6IFOS4CVC,college_bachDegree,NA,white,male,26,christianity_catholic,I believe that this one is an animal.,No comments. ,10,BI2A00021,definitely no,-3,3862,us,keep2219,animal,AZIY6IFOS4CVC,college_bachDegree,NA,white,male,26,christianity_catholic,I believe that this one is an animal.,No comments. ,11,BI2A00016,probably yes,2,2236,us,keep2220,animal,AZIY6IFOS4CVC,college_bachDegree,NA,white,male,26,christianity_catholic,I believe that this one is an animal.,No comments. ,12,BI2A00015,definitely yes,3,1580,us,keep2221,animal,AZIY6IFOS4CVC,college_bachDegree,NA,white,male,26,christianity_catholic,I believe that this one is an animal.,No comments. ,13,BI2A00020,maybe yes,1,4567,us,keep2222,animal,AZIY6IFOS4CVC,college_bachDegree,NA,white,male,26,christianity_catholic,I believe that this one is an animal.,No comments. ,14,BI2A00011,definitely yes,3,1748,us,keep2223,animal,AZIY6IFOS4CVC,college_bachDegree,NA,white,male,26,christianity_catholic,I believe that this one is an animal.,No comments. ,15,BI2A00002,probably yes,2,11643,us,keep2224,animal,AZIY6IFOS4CVC,college_bachDegree,NA,white,male,26,christianity_catholic,I believe that this one is an animal.,No comments. ,16,BI2A00005,definitely yes,3,1277,us,keep2225,animal,AZIY6IFOS4CVC,college_bachDegree,NA,white,male,26,christianity_catholic,I believe that this one is an animal.,No comments. ,17,BI2A00029,definitely no,-3,1644,us,keep2226,animal,AZIY6IFOS4CVC,college_bachDegree,NA,white,male,26,christianity_catholic,I believe that this one is an animal.,No comments. ,18,BI2A00038,definitely no,-3,2701,us,keep2227,animal,AZIY6IFOS4CVC,college_bachDegree,NA,white,male,26,christianity_catholic,I believe that this one is an animal.,No comments. ,19,BI2A00043,probably yes,2,3936,us,keep2228,animal,AZIY6IFOS4CVC,college_bachDegree,NA,white,male,26,christianity_catholic,I believe that this one is an animal.,No comments. ,20,BI2A00045,definitely no,-3,1489,us,keep2229,animal,AZIY6IFOS4CVC,college_bachDegree,NA,white,male,26,christianity_catholic,I believe that this one is an animal.,No comments. ,21,BI2A00039,definitely no,-3,1902,us,keep2230,animal,AZIY6IFOS4CVC,college_bachDegree,NA,white,male,26,christianity_catholic,I believe that this one is an animal.,No comments. ,22,BI2A00003,probably yes,2,1660,us,keep2231,animal,AZIY6IFOS4CVC,college_bachDegree,NA,white,male,26,christianity_catholic,I believe that this one is an animal.,No comments. ,23,BI2A00024,definitely yes,3,2210,us,keep2232,animal,AZIY6IFOS4CVC,college_bachDegree,NA,white,male,26,christianity_catholic,I believe that this one is an animal.,No comments. ,24,BI2A00026,probably no,-2,4451,us,keep2233,animal,AZIY6IFOS4CVC,college_bachDegree,NA,white,male,26,christianity_catholic,I believe that this one is an animal.,No comments. ,25,BI2A00030,definitely no,-3,3099,us,keep2234,animal,AZIY6IFOS4CVC,college_bachDegree,NA,white,male,26,christianity_catholic,I believe that this one is an animal.,No comments. ,26,BI2A00010,definitely yes,3,2097,us,keep2235,animal,AZIY6IFOS4CVC,college_bachDegree,NA,white,male,26,christianity_catholic,I believe that this one is an animal.,No comments. ,27,BI2A00023,maybe no,-1,4414,us,keep2236,animal,AZIY6IFOS4CVC,college_bachDegree,NA,white,male,26,christianity_catholic,I believe that this one is an animal.,No comments. ,28,BI2A00018,probably yes,2,5841,us,keep2237,animal,AZIY6IFOS4CVC,college_bachDegree,NA,white,male,26,christianity_catholic,I believe that this one is an animal.,No comments. ,29,BI2A00048,definitely no,-3,1554,us,keep2238,animal,AZIY6IFOS4CVC,college_bachDegree,NA,white,male,26,christianity_catholic,I believe that this one is an animal.,No comments. ,30,BI2A00019,probably yes,2,4465,us,keep2239,animal,AZIY6IFOS4CVC,college_bachDegree,NA,white,male,26,christianity_catholic,I believe that this one is an animal.,No comments. ,31,BI2A00022,probably yes,2,2096,us,keep2240,animal,AZIY6IFOS4CVC,college_bachDegree,NA,white,male,26,christianity_catholic,I believe that this one is an animal.,No comments. ,32,BI2A00004,definitely yes,3,1310,us,keep2241,animal,AZIY6IFOS4CVC,college_bachDegree,NA,white,male,26,christianity_catholic,I believe that this one is an animal.,No comments. ,33,BI2A00006,definitely yes,3,1555,us,keep2242,animal,AZIY6IFOS4CVC,college_bachDegree,NA,white,male,26,christianity_catholic,I believe that this one is an animal.,No comments. ,34,BI2A00033,definitely no,-3,1490,us,keep2243,animal,AZIY6IFOS4CVC,college_bachDegree,NA,white,male,26,christianity_catholic,I believe that this one is an animal.,No comments. ,35,BI2A00013,probably yes,2,2431,us,keep2244,animal,AZIY6IFOS4CVC,college_bachDegree,NA,white,male,26,christianity_catholic,I believe that this one is an animal.,No comments. ,36,BI2A00007,definitely yes,3,2175,us,keep2245,animal,AZIY6IFOS4CVC,college_bachDegree,NA,white,male,26,christianity_catholic,I believe that this one is an animal.,No comments. ,37,BI2A00040,definitely no,-3,1525,us,keep2246,animal,AZIY6IFOS4CVC,college_bachDegree,NA,white,male,26,christianity_catholic,I believe that this one is an animal.,No comments. ,38,BI2A00046,definitely no,-3,1478,us,keep2247,animal,AZIY6IFOS4CVC,college_bachDegree,NA,white,male,26,christianity_catholic,I believe that this one is an animal.,No comments. ,39,BI2A00017,probably no,-2,6664,us,keep2248,animal,AZIY6IFOS4CVC,college_bachDegree,NA,white,male,26,christianity_catholic,I believe that this one is an animal.,No comments. ,40,BI2A00034,probably no,-2,2778,us,keep2249,animal,AZIY6IFOS4CVC,college_bachDegree,NA,white,male,26,christianity_catholic,I believe that this one is an animal.,No comments. ,41,BI2A00031,definitely no,-3,1310,us,keep2250,animal,AZIY6IFOS4CVC,college_bachDegree,NA,white,male,26,christianity_catholic,I believe that this one is an animal.,No comments. ,42,BI2A00044,definitely no,-3,1865,us,keep2251,animal,AZIY6IFOS4CVC,college_bachDegree,NA,white,male,26,christianity_catholic,I believe that this one is an animal.,No comments. ,43,BI2A00012,probably yes,2,6340,us,keep2252,animal,AZIY6IFOS4CVC,college_bachDegree,NA,white,male,26,christianity_catholic,I believe that this one is an animal.,No comments. ,44,BI2A00035,definitely no,-3,1607,us,keep2253,animal,AZIY6IFOS4CVC,college_bachDegree,NA,white,male,26,christianity_catholic,I believe that this one is an animal.,No comments. ,45,BI2A00042,probably no,-2,3589,us,keep2254,animal,AZIY6IFOS4CVC,college_bachDegree,NA,white,male,26,christianity_catholic,I believe that this one is an animal.,No comments. ,46,BI2A00025,probably no,-2,1865,us,keep2255,animal,AZIY6IFOS4CVC,college_bachDegree,NA,white,male,26,christianity_catholic,I believe that this one is an animal.,No comments. ,47,BI2A00001,definitely yes,3,2905,us,keep2256,animal,AZIY6IFOS4CVC,college_bachDegree,NA,white,male,26,christianity_catholic,I believe that this one is an animal.,No comments. ,48,BI2A00014,probably yes,2,2108,us,keep1921,animal,AY3WQH3I3HT4D,college_some,NA,white,male,23,none,I think that it's an animal.,,1,BI2A00016,probably yes,2,5447,us,keep1922,animal,AY3WQH3I3HT4D,college_some,NA,white,male,23,none,I think that it's an animal.,,2,BI2A00027,definitely no,-3,3820,us,keep1923,animal,AY3WQH3I3HT4D,college_some,NA,white,male,23,none,I think that it's an animal.,,3,BI2A00003,definitely yes,3,1470,us,keep1924,animal,AY3WQH3I3HT4D,college_some,NA,white,male,23,none,I think that it's an animal.,,4,BI2A00047,definitely no,-3,2647,us,keep1925,animal,AY3WQH3I3HT4D,college_some,NA,white,male,23,none,I think that it's an animal.,,5,BI2A00041,definitely no,-3,1203,us,keep1926,animal,AY3WQH3I3HT4D,college_some,NA,white,male,23,none,I think that it's an animal.,,6,BI2A00037,definitely no,-3,3663,us,keep1927,animal,AY3WQH3I3HT4D,college_some,NA,white,male,23,none,I think that it's an animal.,,7,BI2A00043,definitely no,-3,1534,us,keep1928,animal,AY3WQH3I3HT4D,college_some,NA,white,male,23,none,I think that it's an animal.,,8,BI2A00019,probably yes,2,2325,us,keep1929,animal,AY3WQH3I3HT4D,college_some,NA,white,male,23,none,I think that it's an animal.,,9,BI2A00010,definitely yes,3,3425,us,keep1930,animal,AY3WQH3I3HT4D,college_some,NA,white,male,23,none,I think that it's an animal.,,10,BI2A00006,definitely yes,3,1185,us,keep1931,animal,AY3WQH3I3HT4D,college_some,NA,white,male,23,none,I think that it's an animal.,,11,BI2A00046,definitely no,-3,1467,us,keep1932,animal,AY3WQH3I3HT4D,college_some,NA,white,male,23,none,I think that it's an animal.,,12,BI2A00015,probably yes,2,3572,us,keep1933,animal,AY3WQH3I3HT4D,college_some,NA,white,male,23,none,I think that it's an animal.,,13,BI2A00039,definitely no,-3,1372,us,keep1934,animal,AY3WQH3I3HT4D,college_some,NA,white,male,23,none,I think that it's an animal.,,14,BI2A00035,definitely no,-3,940,us,keep1935,animal,AY3WQH3I3HT4D,college_some,NA,white,male,23,none,I think that it's an animal.,,15,BI2A00023,probably no,-2,3157,us,keep1936,animal,AY3WQH3I3HT4D,college_some,NA,white,male,23,none,I think that it's an animal.,,16,BI2A00025,definitely no,-3,1709,us,keep1937,animal,AY3WQH3I3HT4D,college_some,NA,white,male,23,none,I think that it's an animal.,,17,BI2A00005,definitely yes,3,1818,us,keep1938,animal,AY3WQH3I3HT4D,college_some,NA,white,male,23,none,I think that it's an animal.,,18,BI2A00020,probably no,-2,3656,us,keep1939,animal,AY3WQH3I3HT4D,college_some,NA,white,male,23,none,I think that it's an animal.,,19,BI2A00045,definitely no,-3,1219,us,keep1940,animal,AY3WQH3I3HT4D,college_some,NA,white,male,23,none,I think that it's an animal.,,20,BI2A00031,definitely no,-3,1508,us,keep1941,animal,AY3WQH3I3HT4D,college_some,NA,white,male,23,none,I think that it's an animal.,,21,BI2A00014,equally yes/no,0,2301,us,keep1942,animal,AY3WQH3I3HT4D,college_some,NA,white,male,23,none,I think that it's an animal.,,22,BI2A00022,maybe no,-1,2586,us,keep1943,animal,AY3WQH3I3HT4D,college_some,NA,white,male,23,none,I think that it's an animal.,,23,BI2A00032,probably no,-2,2282,us,keep1944,animal,AY3WQH3I3HT4D,college_some,NA,white,male,23,none,I think that it's an animal.,,24,BI2A00033,definitely no,-3,1284,us,keep1945,animal,AY3WQH3I3HT4D,college_some,NA,white,male,23,none,I think that it's an animal.,,25,BI2A00012,probably yes,2,3235,us,keep1946,animal,AY3WQH3I3HT4D,college_some,NA,white,male,23,none,I think that it's an animal.,,26,BI2A00002,definitely yes,3,1381,us,keep1947,animal,AY3WQH3I3HT4D,college_some,NA,white,male,23,none,I think that it's an animal.,,27,BI2A00040,definitely no,-3,1315,us,keep1948,animal,AY3WQH3I3HT4D,college_some,NA,white,male,23,none,I think that it's an animal.,,28,BI2A00013,probably yes,2,8685,us,keep1949,animal,AY3WQH3I3HT4D,college_some,NA,white,male,23,none,I think that it's an animal.,,29,BI2A00029,definitely no,-3,1683,us,keep1950,animal,AY3WQH3I3HT4D,college_some,NA,white,male,23,none,I think that it's an animal.,,30,BI2A00034,definitely no,-3,2108,us,keep1951,animal,AY3WQH3I3HT4D,college_some,NA,white,male,23,none,I think that it's an animal.,,31,BI2A00008,definitely yes,3,4706,us,keep1952,animal,AY3WQH3I3HT4D,college_some,NA,white,male,23,none,I think that it's an animal.,,32,BI2A00004,definitely yes,3,1370,us,keep1953,animal,AY3WQH3I3HT4D,college_some,NA,white,male,23,none,I think that it's an animal.,,33,BI2A00048,definitely no,-3,1390,us,keep1954,animal,AY3WQH3I3HT4D,college_some,NA,white,male,23,none,I think that it's an animal.,,34,BI2A00030,definitely no,-3,1163,us,keep1955,animal,AY3WQH3I3HT4D,college_some,NA,white,male,23,none,I think that it's an animal.,,35,BI2A00024,definitely yes,3,3493,us,keep1956,animal,AY3WQH3I3HT4D,college_some,NA,white,male,23,none,I think that it's an animal.,,36,BI2A00036,definitely no,-3,1420,us,keep1957,animal,AY3WQH3I3HT4D,college_some,NA,white,male,23,none,I think that it's an animal.,,37,BI2A00028,definitely no,-3,2527,us,keep1958,animal,AY3WQH3I3HT4D,college_some,NA,white,male,23,none,I think that it's an animal.,,38,BI2A00038,definitely no,-3,1084,us,keep1959,animal,AY3WQH3I3HT4D,college_some,NA,white,male,23,none,I think that it's an animal.,,39,BI2A00009,definitely yes,3,1719,us,keep1960,animal,AY3WQH3I3HT4D,college_some,NA,white,male,23,none,I think that it's an animal.,,40,BI2A00001,definitely yes,3,1307,us,keep1961,animal,AY3WQH3I3HT4D,college_some,NA,white,male,23,none,I think that it's an animal.,,41,BI2A00017,definitely no,-3,1696,us,keep1962,animal,AY3WQH3I3HT4D,college_some,NA,white,male,23,none,I think that it's an animal.,,42,BI2A00011,definitely yes,3,3346,us,keep1963,animal,AY3WQH3I3HT4D,college_some,NA,white,male,23,none,I think that it's an animal.,,43,BI2A00018,maybe yes,1,2989,us,keep1964,animal,AY3WQH3I3HT4D,college_some,NA,white,male,23,none,I think that it's an animal.,,44,BI2A00026,definitely yes,3,1650,us,keep1965,animal,AY3WQH3I3HT4D,college_some,NA,white,male,23,none,I think that it's an animal.,,45,BI2A00042,definitely no,-3,1860,us,keep1966,animal,AY3WQH3I3HT4D,college_some,NA,white,male,23,none,I think that it's an animal.,,46,BI2A00044,definitely no,-3,1403,us,keep1967,animal,AY3WQH3I3HT4D,college_some,NA,white,male,23,none,I think that it's an animal.,,47,BI2A00021,definitely no,-3,1007,us,keep1968,animal,AY3WQH3I3HT4D,college_some,NA,white,male,23,none,I think that it's an animal.,,48,BI2A00007,definitely yes,3,1384,us,keep49,animal,AWEQZZGOOBGV3,grad_some,NA,asian_southAsian,male,28,hinduism,i think this is an animal,nice survey,1,BI2A00022,probably no,-2,68995,india,keep50,animal,AWEQZZGOOBGV3,grad_some,NA,asian_southAsian,male,28,hinduism,i think this is an animal,nice survey,2,BI2A00007,probably no,-2,37,india,keep51,animal,AWEQZZGOOBGV3,grad_some,NA,asian_southAsian,male,28,hinduism,i think this is an animal,nice survey,3,BI2A00043,definitely no,-3,8787,india,keep52,animal,AWEQZZGOOBGV3,grad_some,NA,asian_southAsian,male,28,hinduism,i think this is an animal,nice survey,4,BI2A00004,definitely yes,3,4441,india,keep53,animal,AWEQZZGOOBGV3,grad_some,NA,asian_southAsian,male,28,hinduism,i think this is an animal,nice survey,5,BI2A00017,probably no,-2,8005,india,keep54,animal,AWEQZZGOOBGV3,grad_some,NA,asian_southAsian,male,28,hinduism,i think this is an animal,nice survey,6,BI2A00038,definitely no,-3,29087,india,keep55,animal,AWEQZZGOOBGV3,grad_some,NA,asian_southAsian,male,28,hinduism,i think this is an animal,nice survey,7,BI2A00046,definitely no,-3,2161,india,keep56,animal,AWEQZZGOOBGV3,grad_some,NA,asian_southAsian,male,28,hinduism,i think this is an animal,nice survey,8,BI2A00001,definitely yes,3,2107,india,keep57,animal,AWEQZZGOOBGV3,grad_some,NA,asian_southAsian,male,28,hinduism,i think this is an animal,nice survey,9,BI2A00047,definitely no,-3,4460,india,keep58,animal,AWEQZZGOOBGV3,grad_some,NA,asian_southAsian,male,28,hinduism,i think this is an animal,nice survey,10,BI2A00009,definitely yes,3,2100,india,keep59,animal,AWEQZZGOOBGV3,grad_some,NA,asian_southAsian,male,28,hinduism,i think this is an animal,nice survey,11,BI2A00042,definitely no,-3,4138,india,keep60,animal,AWEQZZGOOBGV3,grad_some,NA,asian_southAsian,male,28,hinduism,i think this is an animal,nice survey,12,BI2A00012,definitely yes,3,8661,india,keep61,animal,AWEQZZGOOBGV3,grad_some,NA,asian_southAsian,male,28,hinduism,i think this is an animal,nice survey,13,BI2A00026,definitely yes,3,2028,india,keep62,animal,AWEQZZGOOBGV3,grad_some,NA,asian_southAsian,male,28,hinduism,i think this is an animal,nice survey,14,BI2A00002,definitely yes,3,891,india,keep63,animal,AWEQZZGOOBGV3,grad_some,NA,asian_southAsian,male,28,hinduism,i think this is an animal,nice survey,15,BI2A00045,definitely yes,3,3339,india,keep64,animal,AWEQZZGOOBGV3,grad_some,NA,asian_southAsian,male,28,hinduism,i think this is an animal,nice survey,16,BI2A00029,definitely yes,3,76,india,keep65,animal,AWEQZZGOOBGV3,grad_some,NA,asian_southAsian,male,28,hinduism,i think this is an animal,nice survey,17,BI2A00048,definitely no,-3,1975,india,keep66,animal,AWEQZZGOOBGV3,grad_some,NA,asian_southAsian,male,28,hinduism,i think this is an animal,nice survey,18,BI2A00005,definitely yes,3,1707,india,keep67,animal,AWEQZZGOOBGV3,grad_some,NA,asian_southAsian,male,28,hinduism,i think this is an animal,nice survey,19,BI2A00020,definitely yes,3,3979,india,keep68,animal,AWEQZZGOOBGV3,grad_some,NA,asian_southAsian,male,28,hinduism,i think this is an animal,nice survey,20,BI2A00014,definitely no,-3,5970,india,keep69,animal,AWEQZZGOOBGV3,grad_some,NA,asian_southAsian,male,28,hinduism,i think this is an animal,nice survey,21,BI2A00025,definitely no,-3,32516,india,keep70,animal,AWEQZZGOOBGV3,grad_some,NA,asian_southAsian,male,28,hinduism,i think this is an animal,nice survey,22,BI2A00027,definitely no,-3,82,india,keep71,animal,AWEQZZGOOBGV3,grad_some,NA,asian_southAsian,male,28,hinduism,i think this is an animal,nice survey,23,BI2A00019,definitely yes,3,1647,india,keep72,animal,AWEQZZGOOBGV3,grad_some,NA,asian_southAsian,male,28,hinduism,i think this is an animal,nice survey,24,BI2A00041,definitely yes,3,76,india,keep73,animal,AWEQZZGOOBGV3,grad_some,NA,asian_southAsian,male,28,hinduism,i think this is an animal,nice survey,25,BI2A00016,maybe no,-1,3184,india,keep74,animal,AWEQZZGOOBGV3,grad_some,NA,asian_southAsian,male,28,hinduism,i think this is an animal,nice survey,26,BI2A00033,probably no,-2,2184,india,keep75,animal,AWEQZZGOOBGV3,grad_some,NA,asian_southAsian,male,28,hinduism,i think this is an animal,nice survey,27,BI2A00035,definitely no,-3,1647,india,keep76,animal,AWEQZZGOOBGV3,grad_some,NA,asian_southAsian,male,28,hinduism,i think this is an animal,nice survey,28,BI2A00037,definitely no,-3,1248,india,keep77,animal,AWEQZZGOOBGV3,grad_some,NA,asian_southAsian,male,28,hinduism,i think this is an animal,nice survey,29,BI2A00010,definitely no,-3,58,india,keep78,animal,AWEQZZGOOBGV3,grad_some,NA,asian_southAsian,male,28,hinduism,i think this is an animal,nice survey,30,BI2A00023,definitely no,-3,1024,india,keep79,animal,AWEQZZGOOBGV3,grad_some,NA,asian_southAsian,male,28,hinduism,i think this is an animal,nice survey,31,BI2A00018,definitely no,-3,1100,india,keep80,animal,AWEQZZGOOBGV3,grad_some,NA,asian_southAsian,male,28,hinduism,i think this is an animal,nice survey,32,BI2A00034,definitely no,-3,997,india,keep81,animal,AWEQZZGOOBGV3,grad_some,NA,asian_southAsian,male,28,hinduism,i think this is an animal,nice survey,33,BI2A00040,definitely no,-3,70,india,keep82,animal,AWEQZZGOOBGV3,grad_some,NA,asian_southAsian,male,28,hinduism,i think this is an animal,nice survey,34,BI2A00003,definitely yes,3,1913,india,keep83,animal,AWEQZZGOOBGV3,grad_some,NA,asian_southAsian,male,28,hinduism,i think this is an animal,nice survey,35,BI2A00032,definitely no,-3,2668,india,keep84,animal,AWEQZZGOOBGV3,grad_some,NA,asian_southAsian,male,28,hinduism,i think this is an animal,nice survey,36,BI2A00044,definitely no,-3,953,india,keep85,animal,AWEQZZGOOBGV3,grad_some,NA,asian_southAsian,male,28,hinduism,i think this is an animal,nice survey,37,BI2A00021,definitely no,-3,739,india,keep86,animal,AWEQZZGOOBGV3,grad_some,NA,asian_southAsian,male,28,hinduism,i think this is an animal,nice survey,38,BI2A00011,definitely yes,3,2309,india,keep87,animal,AWEQZZGOOBGV3,grad_some,NA,asian_southAsian,male,28,hinduism,i think this is an animal,nice survey,39,BI2A00008,definitely yes,3,1468,india,keep88,animal,AWEQZZGOOBGV3,grad_some,NA,asian_southAsian,male,28,hinduism,i think this is an animal,nice survey,40,BI2A00030,definitely no,-3,1700,india,keep89,animal,AWEQZZGOOBGV3,grad_some,NA,asian_southAsian,male,28,hinduism,i think this is an animal,nice survey,41,BI2A00013,definitely no,-3,42,india,keep90,animal,AWEQZZGOOBGV3,grad_some,NA,asian_southAsian,male,28,hinduism,i think this is an animal,nice survey,42,BI2A00006,definitely yes,3,1683,india,keep91,animal,AWEQZZGOOBGV3,grad_some,NA,asian_southAsian,male,28,hinduism,i think this is an animal,nice survey,43,BI2A00036,definitely no,-3,1463,india,keep92,animal,AWEQZZGOOBGV3,grad_some,NA,asian_southAsian,male,28,hinduism,i think this is an animal,nice survey,44,BI2A00015,equally yes/no,0,4780,india,keep93,animal,AWEQZZGOOBGV3,grad_some,NA,asian_southAsian,male,28,hinduism,i think this is an animal,nice survey,45,BI2A00039,definitely no,-3,1429,india,keep94,animal,AWEQZZGOOBGV3,grad_some,NA,asian_southAsian,male,28,hinduism,i think this is an animal,nice survey,46,BI2A00028,definitely no,-3,1200,india,keep95,animal,AWEQZZGOOBGV3,grad_some,NA,asian_southAsian,male,28,hinduism,i think this is an animal,nice survey,47,BI2A00031,definitely no,-3,1975,india,keep96,animal,AWEQZZGOOBGV3,grad_some,NA,asian_southAsian,male,28,hinduism,i think this is an animal,nice survey,48,BI2A00024,definitely yes,3,2011,india,keep961,animal,AUR6U2RJAGUTF,college_bachDegree,NA,asian_southAsian,male,21,hinduism,I think that is an animal,Good survey,1,BI2A00037,definitely no,-3,24142,india,keep962,animal,AUR6U2RJAGUTF,college_bachDegree,NA,asian_southAsian,male,21,hinduism,I think that is an animal,Good survey,2,BI2A00017,probably no,-2,8465,india,keep963,animal,AUR6U2RJAGUTF,college_bachDegree,NA,asian_southAsian,male,21,hinduism,I think that is an animal,Good survey,3,BI2A00028,probably no,-2,4685,india,keep964,animal,AUR6U2RJAGUTF,college_bachDegree,NA,asian_southAsian,male,21,hinduism,I think that is an animal,Good survey,4,BI2A00020,probably no,-2,3971,india,keep965,animal,AUR6U2RJAGUTF,college_bachDegree,NA,asian_southAsian,male,21,hinduism,I think that is an animal,Good survey,5,BI2A00008,probably yes,2,4116,india,keep966,animal,AUR6U2RJAGUTF,college_bachDegree,NA,asian_southAsian,male,21,hinduism,I think that is an animal,Good survey,6,BI2A00034,probably yes,2,1999,india,keep967,animal,AUR6U2RJAGUTF,college_bachDegree,NA,asian_southAsian,male,21,hinduism,I think that is an animal,Good survey,7,BI2A00035,probably yes,2,2446,india,keep968,animal,AUR6U2RJAGUTF,college_bachDegree,NA,asian_southAsian,male,21,hinduism,I think that is an animal,Good survey,8,BI2A00014,probably yes,2,2006,india,keep969,animal,AUR6U2RJAGUTF,college_bachDegree,NA,asian_southAsian,male,21,hinduism,I think that is an animal,Good survey,9,BI2A00032,probably yes,2,1953,india,keep970,animal,AUR6U2RJAGUTF,college_bachDegree,NA,asian_southAsian,male,21,hinduism,I think that is an animal,Good survey,10,BI2A00046,probably yes,2,2986,india,keep971,animal,AUR6U2RJAGUTF,college_bachDegree,NA,asian_southAsian,male,21,hinduism,I think that is an animal,Good survey,11,BI2A00003,definitely yes,3,3408,india,keep972,animal,AUR6U2RJAGUTF,college_bachDegree,NA,asian_southAsian,male,21,hinduism,I think that is an animal,Good survey,12,BI2A00023,probably yes,2,1760,india,keep973,animal,AUR6U2RJAGUTF,college_bachDegree,NA,asian_southAsian,male,21,hinduism,I think that is an animal,Good survey,13,BI2A00025,probably yes,2,1613,india,keep974,animal,AUR6U2RJAGUTF,college_bachDegree,NA,asian_southAsian,male,21,hinduism,I think that is an animal,Good survey,14,BI2A00022,definitely yes,3,1801,india,keep975,animal,AUR6U2RJAGUTF,college_bachDegree,NA,asian_southAsian,male,21,hinduism,I think that is an animal,Good survey,15,BI2A00002,probably yes,2,5154,india,keep976,animal,AUR6U2RJAGUTF,college_bachDegree,NA,asian_southAsian,male,21,hinduism,I think that is an animal,Good survey,16,BI2A00013,probably yes,2,2602,india,keep977,animal,AUR6U2RJAGUTF,college_bachDegree,NA,asian_southAsian,male,21,hinduism,I think that is an animal,Good survey,17,BI2A00047,maybe yes,1,4385,india,keep978,animal,AUR6U2RJAGUTF,college_bachDegree,NA,asian_southAsian,male,21,hinduism,I think that is an animal,Good survey,18,BI2A00045,maybe yes,1,2856,india,keep979,animal,AUR6U2RJAGUTF,college_bachDegree,NA,asian_southAsian,male,21,hinduism,I think that is an animal,Good survey,19,BI2A00033,probably no,-2,2882,india,keep980,animal,AUR6U2RJAGUTF,college_bachDegree,NA,asian_southAsian,male,21,hinduism,I think that is an animal,Good survey,20,BI2A00040,definitely no,-3,1440,india,keep981,animal,AUR6U2RJAGUTF,college_bachDegree,NA,asian_southAsian,male,21,hinduism,I think that is an animal,Good survey,21,BI2A00042,definitely no,-3,1397,india,keep982,animal,AUR6U2RJAGUTF,college_bachDegree,NA,asian_southAsian,male,21,hinduism,I think that is an animal,Good survey,22,BI2A00019,maybe yes,1,3211,india,keep983,animal,AUR6U2RJAGUTF,college_bachDegree,NA,asian_southAsian,male,21,hinduism,I think that is an animal,Good survey,23,BI2A00041,maybe yes,1,1800,india,keep984,animal,AUR6U2RJAGUTF,college_bachDegree,NA,asian_southAsian,male,21,hinduism,I think that is an animal,Good survey,24,BI2A00038,maybe yes,1,1829,india,keep985,animal,AUR6U2RJAGUTF,college_bachDegree,NA,asian_southAsian,male,21,hinduism,I think that is an animal,Good survey,25,BI2A00031,maybe yes,1,1721,india,keep986,animal,AUR6U2RJAGUTF,college_bachDegree,NA,asian_southAsian,male,21,hinduism,I think that is an animal,Good survey,26,BI2A00001,maybe yes,1,1701,india,keep987,animal,AUR6U2RJAGUTF,college_bachDegree,NA,asian_southAsian,male,21,hinduism,I think that is an animal,Good survey,27,BI2A00007,maybe yes,1,8647,india,keep988,animal,AUR6U2RJAGUTF,college_bachDegree,NA,asian_southAsian,male,21,hinduism,I think that is an animal,Good survey,28,BI2A00018,maybe yes,1,1678,india,keep989,animal,AUR6U2RJAGUTF,college_bachDegree,NA,asian_southAsian,male,21,hinduism,I think that is an animal,Good survey,29,BI2A00029,maybe yes,1,2221,india,keep990,animal,AUR6U2RJAGUTF,college_bachDegree,NA,asian_southAsian,male,21,hinduism,I think that is an animal,Good survey,30,BI2A00011,definitely yes,3,3687,india,keep991,animal,AUR6U2RJAGUTF,college_bachDegree,NA,asian_southAsian,male,21,hinduism,I think that is an animal,Good survey,31,BI2A00027,definitely yes,3,1518,india,keep992,animal,AUR6U2RJAGUTF,college_bachDegree,NA,asian_southAsian,male,21,hinduism,I think that is an animal,Good survey,32,BI2A00044,definitely yes,3,1441,india,keep993,animal,AUR6U2RJAGUTF,college_bachDegree,NA,asian_southAsian,male,21,hinduism,I think that is an animal,Good survey,33,BI2A00043,definitely yes,3,2152,india,keep994,animal,AUR6U2RJAGUTF,college_bachDegree,NA,asian_southAsian,male,21,hinduism,I think that is an animal,Good survey,34,BI2A00004,maybe yes,1,2256,india,keep995,animal,AUR6U2RJAGUTF,college_bachDegree,NA,asian_southAsian,male,21,hinduism,I think that is an animal,Good survey,35,BI2A00021,maybe yes,1,1666,india,keep996,animal,AUR6U2RJAGUTF,college_bachDegree,NA,asian_southAsian,male,21,hinduism,I think that is an animal,Good survey,36,BI2A00010,equally yes/no,0,3990,india,keep997,animal,AUR6U2RJAGUTF,college_bachDegree,NA,asian_southAsian,male,21,hinduism,I think that is an animal,Good survey,37,BI2A00048,equally yes/no,0,1572,india,keep998,animal,AUR6U2RJAGUTF,college_bachDegree,NA,asian_southAsian,male,21,hinduism,I think that is an animal,Good survey,38,BI2A00026,equally yes/no,0,2205,india,keep999,animal,AUR6U2RJAGUTF,college_bachDegree,NA,asian_southAsian,male,21,hinduism,I think that is an animal,Good survey,39,BI2A00016,equally yes/no,0,5682,india,keep1000,animal,AUR6U2RJAGUTF,college_bachDegree,NA,asian_southAsian,male,21,hinduism,I think that is an animal,Good survey,40,BI2A00009,maybe yes,1,2989,india,keep1001,animal,AUR6U2RJAGUTF,college_bachDegree,NA,asian_southAsian,male,21,hinduism,I think that is an animal,Good survey,41,BI2A00006,probably yes,2,1866,india,keep1002,animal,AUR6U2RJAGUTF,college_bachDegree,NA,asian_southAsian,male,21,hinduism,I think that is an animal,Good survey,42,BI2A00024,probably yes,2,2214,india,keep1003,animal,AUR6U2RJAGUTF,college_bachDegree,NA,asian_southAsian,male,21,hinduism,I think that is an animal,Good survey,43,BI2A00015,equally yes/no,0,2790,india,keep1004,animal,AUR6U2RJAGUTF,college_bachDegree,NA,asian_southAsian,male,21,hinduism,I think that is an animal,Good survey,44,BI2A00036,equally yes/no,0,1523,india,keep1005,animal,AUR6U2RJAGUTF,college_bachDegree,NA,asian_southAsian,male,21,hinduism,I think that is an animal,Good survey,45,BI2A00039,equally yes/no,0,1672,india,keep1006,animal,AUR6U2RJAGUTF,college_bachDegree,NA,asian_southAsian,male,21,hinduism,I think that is an animal,Good survey,46,BI2A00012,maybe yes,1,7870,india,keep1007,animal,AUR6U2RJAGUTF,college_bachDegree,NA,asian_southAsian,male,21,hinduism,I think that is an animal,Good survey,47,BI2A00005,definitely yes,3,2181,india,keep1008,animal,AUR6U2RJAGUTF,college_bachDegree,NA,asian_southAsian,male,21,hinduism,I think that is an animal,Good survey,48,BI2A00030,definitely yes,3,4247,india,keep145,animal,AUD3A4YDWWZCY,grad_degree,NA,asian_southAsian,female,36,hinduism,I THINK THE PICTURE SHOWN IS AN ANIMAL,NOTHING TO SAY EVERYTHING IS GOOD IN THIS SURVEY,1,BI2A00028,definitely yes,3,7271,india,keep146,animal,AUD3A4YDWWZCY,grad_degree,NA,asian_southAsian,female,36,hinduism,I THINK THE PICTURE SHOWN IS AN ANIMAL,NOTHING TO SAY EVERYTHING IS GOOD IN THIS SURVEY,2,BI2A00021,maybe yes,1,4275,india,keep147,animal,AUD3A4YDWWZCY,grad_degree,NA,asian_southAsian,female,36,hinduism,I THINK THE PICTURE SHOWN IS AN ANIMAL,NOTHING TO SAY EVERYTHING IS GOOD IN THIS SURVEY,3,BI2A00024,definitely yes,3,3477,india,keep148,animal,AUD3A4YDWWZCY,grad_degree,NA,asian_southAsian,female,36,hinduism,I THINK THE PICTURE SHOWN IS AN ANIMAL,NOTHING TO SAY EVERYTHING IS GOOD IN THIS SURVEY,4,BI2A00026,maybe yes,1,3765,india,keep149,animal,AUD3A4YDWWZCY,grad_degree,NA,asian_southAsian,female,36,hinduism,I THINK THE PICTURE SHOWN IS AN ANIMAL,NOTHING TO SAY EVERYTHING IS GOOD IN THIS SURVEY,5,BI2A00019,definitely yes,3,5637,india,keep150,animal,AUD3A4YDWWZCY,grad_degree,NA,asian_southAsian,female,36,hinduism,I THINK THE PICTURE SHOWN IS AN ANIMAL,NOTHING TO SAY EVERYTHING IS GOOD IN THIS SURVEY,6,BI2A00020,definitely yes,3,2190,india,keep151,animal,AUD3A4YDWWZCY,grad_degree,NA,asian_southAsian,female,36,hinduism,I THINK THE PICTURE SHOWN IS AN ANIMAL,NOTHING TO SAY EVERYTHING IS GOOD IN THIS SURVEY,7,BI2A00042,definitely no,-3,3484,india,keep152,animal,AUD3A4YDWWZCY,grad_degree,NA,asian_southAsian,female,36,hinduism,I THINK THE PICTURE SHOWN IS AN ANIMAL,NOTHING TO SAY EVERYTHING IS GOOD IN THIS SURVEY,8,BI2A00006,definitely yes,3,1989,india,keep153,animal,AUD3A4YDWWZCY,grad_degree,NA,asian_southAsian,female,36,hinduism,I THINK THE PICTURE SHOWN IS AN ANIMAL,NOTHING TO SAY EVERYTHING IS GOOD IN THIS SURVEY,9,BI2A00032,maybe no,-1,3397,india,keep154,animal,AUD3A4YDWWZCY,grad_degree,NA,asian_southAsian,female,36,hinduism,I THINK THE PICTURE SHOWN IS AN ANIMAL,NOTHING TO SAY EVERYTHING IS GOOD IN THIS SURVEY,10,BI2A00002,definitely yes,3,1725,india,keep155,animal,AUD3A4YDWWZCY,grad_degree,NA,asian_southAsian,female,36,hinduism,I THINK THE PICTURE SHOWN IS AN ANIMAL,NOTHING TO SAY EVERYTHING IS GOOD IN THIS SURVEY,11,BI2A00012,probably no,-2,4774,india,keep156,animal,AUD3A4YDWWZCY,grad_degree,NA,asian_southAsian,female,36,hinduism,I THINK THE PICTURE SHOWN IS AN ANIMAL,NOTHING TO SAY EVERYTHING IS GOOD IN THIS SURVEY,12,BI2A00015,definitely yes,3,1614,india,keep157,animal,AUD3A4YDWWZCY,grad_degree,NA,asian_southAsian,female,36,hinduism,I THINK THE PICTURE SHOWN IS AN ANIMAL,NOTHING TO SAY EVERYTHING IS GOOD IN THIS SURVEY,13,BI2A00025,definitely yes,3,141,india,keep158,animal,AUD3A4YDWWZCY,grad_degree,NA,asian_southAsian,female,36,hinduism,I THINK THE PICTURE SHOWN IS AN ANIMAL,NOTHING TO SAY EVERYTHING IS GOOD IN THIS SURVEY,14,BI2A00035,probably no,-2,5397,india,keep159,animal,AUD3A4YDWWZCY,grad_degree,NA,asian_southAsian,female,36,hinduism,I THINK THE PICTURE SHOWN IS AN ANIMAL,NOTHING TO SAY EVERYTHING IS GOOD IN THIS SURVEY,15,BI2A00010,definitely yes,3,2653,india,keep160,animal,AUD3A4YDWWZCY,grad_degree,NA,asian_southAsian,female,36,hinduism,I THINK THE PICTURE SHOWN IS AN ANIMAL,NOTHING TO SAY EVERYTHING IS GOOD IN THIS SURVEY,16,BI2A00001,probably yes,2,3213,india,keep161,animal,AUD3A4YDWWZCY,grad_degree,NA,asian_southAsian,female,36,hinduism,I THINK THE PICTURE SHOWN IS AN ANIMAL,NOTHING TO SAY EVERYTHING IS GOOD IN THIS SURVEY,17,BI2A00029,definitely yes,3,3531,india,keep162,animal,AUD3A4YDWWZCY,grad_degree,NA,asian_southAsian,female,36,hinduism,I THINK THE PICTURE SHOWN IS AN ANIMAL,NOTHING TO SAY EVERYTHING IS GOOD IN THIS SURVEY,18,BI2A00018,definitely no,-3,2245,india,keep163,animal,AUD3A4YDWWZCY,grad_degree,NA,asian_southAsian,female,36,hinduism,I THINK THE PICTURE SHOWN IS AN ANIMAL,NOTHING TO SAY EVERYTHING IS GOOD IN THIS SURVEY,19,BI2A00039,definitely no,-3,125,india,keep164,animal,AUD3A4YDWWZCY,grad_degree,NA,asian_southAsian,female,36,hinduism,I THINK THE PICTURE SHOWN IS AN ANIMAL,NOTHING TO SAY EVERYTHING IS GOOD IN THIS SURVEY,20,BI2A00038,definitely no,-3,2910,india,keep165,animal,AUD3A4YDWWZCY,grad_degree,NA,asian_southAsian,female,36,hinduism,I THINK THE PICTURE SHOWN IS AN ANIMAL,NOTHING TO SAY EVERYTHING IS GOOD IN THIS SURVEY,21,BI2A00004,definitely yes,3,2029,india,keep166,animal,AUD3A4YDWWZCY,grad_degree,NA,asian_southAsian,female,36,hinduism,I THINK THE PICTURE SHOWN IS AN ANIMAL,NOTHING TO SAY EVERYTHING IS GOOD IN THIS SURVEY,22,BI2A00048,definitely no,-3,3139,india,keep167,animal,AUD3A4YDWWZCY,grad_degree,NA,asian_southAsian,female,36,hinduism,I THINK THE PICTURE SHOWN IS AN ANIMAL,NOTHING TO SAY EVERYTHING IS GOOD IN THIS SURVEY,23,BI2A00003,definitely yes,3,1501,india,keep168,animal,AUD3A4YDWWZCY,grad_degree,NA,asian_southAsian,female,36,hinduism,I THINK THE PICTURE SHOWN IS AN ANIMAL,NOTHING TO SAY EVERYTHING IS GOOD IN THIS SURVEY,24,BI2A00033,definitely no,-3,2197,india,keep169,animal,AUD3A4YDWWZCY,grad_degree,NA,asian_southAsian,female,36,hinduism,I THINK THE PICTURE SHOWN IS AN ANIMAL,NOTHING TO SAY EVERYTHING IS GOOD IN THIS SURVEY,25,BI2A00040,definitely no,-3,2525,india,keep170,animal,AUD3A4YDWWZCY,grad_degree,NA,asian_southAsian,female,36,hinduism,I THINK THE PICTURE SHOWN IS AN ANIMAL,NOTHING TO SAY EVERYTHING IS GOOD IN THIS SURVEY,26,BI2A00046,definitely no,-3,1795,india,keep171,animal,AUD3A4YDWWZCY,grad_degree,NA,asian_southAsian,female,36,hinduism,I THINK THE PICTURE SHOWN IS AN ANIMAL,NOTHING TO SAY EVERYTHING IS GOOD IN THIS SURVEY,27,BI2A00031,definitely no,-3,1550,india,keep172,animal,AUD3A4YDWWZCY,grad_degree,NA,asian_southAsian,female,36,hinduism,I THINK THE PICTURE SHOWN IS AN ANIMAL,NOTHING TO SAY EVERYTHING IS GOOD IN THIS SURVEY,28,BI2A00045,definitely no,-3,1107,india,keep173,animal,AUD3A4YDWWZCY,grad_degree,NA,asian_southAsian,female,36,hinduism,I THINK THE PICTURE SHOWN IS AN ANIMAL,NOTHING TO SAY EVERYTHING IS GOOD IN THIS SURVEY,29,BI2A00023,definitely no,-3,1237,india,keep174,animal,AUD3A4YDWWZCY,grad_degree,NA,asian_southAsian,female,36,hinduism,I THINK THE PICTURE SHOWN IS AN ANIMAL,NOTHING TO SAY EVERYTHING IS GOOD IN THIS SURVEY,30,BI2A00011,definitely yes,3,2054,india,keep175,animal,AUD3A4YDWWZCY,grad_degree,NA,asian_southAsian,female,36,hinduism,I THINK THE PICTURE SHOWN IS AN ANIMAL,NOTHING TO SAY EVERYTHING IS GOOD IN THIS SURVEY,31,BI2A00005,definitely yes,3,1318,india,keep176,animal,AUD3A4YDWWZCY,grad_degree,NA,asian_southAsian,female,36,hinduism,I THINK THE PICTURE SHOWN IS AN ANIMAL,NOTHING TO SAY EVERYTHING IS GOOD IN THIS SURVEY,32,BI2A00008,definitely yes,3,918,india,keep177,animal,AUD3A4YDWWZCY,grad_degree,NA,asian_southAsian,female,36,hinduism,I THINK THE PICTURE SHOWN IS AN ANIMAL,NOTHING TO SAY EVERYTHING IS GOOD IN THIS SURVEY,33,BI2A00030,definitely no,-3,1846,india,keep178,animal,AUD3A4YDWWZCY,grad_degree,NA,asian_southAsian,female,36,hinduism,I THINK THE PICTURE SHOWN IS AN ANIMAL,NOTHING TO SAY EVERYTHING IS GOOD IN THIS SURVEY,34,BI2A00027,definitely no,-3,7462,india,keep179,animal,AUD3A4YDWWZCY,grad_degree,NA,asian_southAsian,female,36,hinduism,I THINK THE PICTURE SHOWN IS AN ANIMAL,NOTHING TO SAY EVERYTHING IS GOOD IN THIS SURVEY,35,BI2A00009,definitely yes,3,1478,india,keep180,animal,AUD3A4YDWWZCY,grad_degree,NA,asian_southAsian,female,36,hinduism,I THINK THE PICTURE SHOWN IS AN ANIMAL,NOTHING TO SAY EVERYTHING IS GOOD IN THIS SURVEY,36,BI2A00036,definitely no,-3,4205,india,keep181,animal,AUD3A4YDWWZCY,grad_degree,NA,asian_southAsian,female,36,hinduism,I THINK THE PICTURE SHOWN IS AN ANIMAL,NOTHING TO SAY EVERYTHING IS GOOD IN THIS SURVEY,37,BI2A00034,definitely yes,3,1589,india,keep182,animal,AUD3A4YDWWZCY,grad_degree,NA,asian_southAsian,female,36,hinduism,I THINK THE PICTURE SHOWN IS AN ANIMAL,NOTHING TO SAY EVERYTHING IS GOOD IN THIS SURVEY,38,BI2A00047,probably no,-2,1868,india,keep183,animal,AUD3A4YDWWZCY,grad_degree,NA,asian_southAsian,female,36,hinduism,I THINK THE PICTURE SHOWN IS AN ANIMAL,NOTHING TO SAY EVERYTHING IS GOOD IN THIS SURVEY,39,BI2A00013,definitely yes,3,1493,india,keep184,animal,AUD3A4YDWWZCY,grad_degree,NA,asian_southAsian,female,36,hinduism,I THINK THE PICTURE SHOWN IS AN ANIMAL,NOTHING TO SAY EVERYTHING IS GOOD IN THIS SURVEY,40,BI2A00044,maybe no,-1,2517,india,keep185,animal,AUD3A4YDWWZCY,grad_degree,NA,asian_southAsian,female,36,hinduism,I THINK THE PICTURE SHOWN IS AN ANIMAL,NOTHING TO SAY EVERYTHING IS GOOD IN THIS SURVEY,41,BI2A00014,definitely yes,3,1533,india,keep186,animal,AUD3A4YDWWZCY,grad_degree,NA,asian_southAsian,female,36,hinduism,I THINK THE PICTURE SHOWN IS AN ANIMAL,NOTHING TO SAY EVERYTHING IS GOOD IN THIS SURVEY,42,BI2A00037,probably no,-2,3006,india,keep187,animal,AUD3A4YDWWZCY,grad_degree,NA,asian_southAsian,female,36,hinduism,I THINK THE PICTURE SHOWN IS AN ANIMAL,NOTHING TO SAY EVERYTHING IS GOOD IN THIS SURVEY,43,BI2A00022,definitely yes,3,1871,india,keep188,animal,AUD3A4YDWWZCY,grad_degree,NA,asian_southAsian,female,36,hinduism,I THINK THE PICTURE SHOWN IS AN ANIMAL,NOTHING TO SAY EVERYTHING IS GOOD IN THIS SURVEY,44,BI2A00007,definitely yes,3,934,india,keep189,animal,AUD3A4YDWWZCY,grad_degree,NA,asian_southAsian,female,36,hinduism,I THINK THE PICTURE SHOWN IS AN ANIMAL,NOTHING TO SAY EVERYTHING IS GOOD IN THIS SURVEY,45,BI2A00017,definitely no,-3,3062,india,keep190,animal,AUD3A4YDWWZCY,grad_degree,NA,asian_southAsian,female,36,hinduism,I THINK THE PICTURE SHOWN IS AN ANIMAL,NOTHING TO SAY EVERYTHING IS GOOD IN THIS SURVEY,46,BI2A00043,definitely no,-3,3662,india,keep191,animal,AUD3A4YDWWZCY,grad_degree,NA,asian_southAsian,female,36,hinduism,I THINK THE PICTURE SHOWN IS AN ANIMAL,NOTHING TO SAY EVERYTHING IS GOOD IN THIS SURVEY,47,BI2A00041,definitely no,-3,2126,india,keep192,animal,AUD3A4YDWWZCY,grad_degree,NA,asian_southAsian,female,36,hinduism,I THINK THE PICTURE SHOWN IS AN ANIMAL,NOTHING TO SAY EVERYTHING IS GOOD IN THIS SURVEY,48,BI2A00016,probably yes,2,2286,india,keep337,animal,AUAPLGQ19ISI0,grad_degree,NA,asian_eastAsian,female,35,christianity_catholic,"I think, this one is an animal",,1,BI2A00011,definitely yes,3,3044,india,keep338,animal,AUAPLGQ19ISI0,grad_degree,NA,asian_eastAsian,female,35,christianity_catholic,"I think, this one is an animal",,2,BI2A00033,definitely no,-3,19585,india,keep339,animal,AUAPLGQ19ISI0,grad_degree,NA,asian_eastAsian,female,35,christianity_catholic,"I think, this one is an animal",,3,BI2A00041,probably no,-2,20452,india,keep340,animal,AUAPLGQ19ISI0,grad_degree,NA,asian_eastAsian,female,35,christianity_catholic,"I think, this one is an animal",,4,BI2A00046,definitely no,-3,15468,india,keep341,animal,AUAPLGQ19ISI0,grad_degree,NA,asian_eastAsian,female,35,christianity_catholic,"I think, this one is an animal",,5,BI2A00043,probably no,-2,18747,india,keep342,animal,AUAPLGQ19ISI0,grad_degree,NA,asian_eastAsian,female,35,christianity_catholic,"I think, this one is an animal",,6,BI2A00032,probably no,-2,18404,india,keep343,animal,AUAPLGQ19ISI0,grad_degree,NA,asian_eastAsian,female,35,christianity_catholic,"I think, this one is an animal",,7,BI2A00018,probably no,-2,1851,india,keep344,animal,AUAPLGQ19ISI0,grad_degree,NA,asian_eastAsian,female,35,christianity_catholic,"I think, this one is an animal",,8,BI2A00012,equally yes/no,0,2314,india,keep345,animal,AUAPLGQ19ISI0,grad_degree,NA,asian_eastAsian,female,35,christianity_catholic,"I think, this one is an animal",,9,BI2A00030,definitely no,-3,19851,india,keep346,animal,AUAPLGQ19ISI0,grad_degree,NA,asian_eastAsian,female,35,christianity_catholic,"I think, this one is an animal",,10,BI2A00025,definitely no,-3,9892,india,keep347,animal,AUAPLGQ19ISI0,grad_degree,NA,asian_eastAsian,female,35,christianity_catholic,"I think, this one is an animal",,11,BI2A00013,probably yes,2,2490,india,keep348,animal,AUAPLGQ19ISI0,grad_degree,NA,asian_eastAsian,female,35,christianity_catholic,"I think, this one is an animal",,12,BI2A00039,definitely no,-3,16634,india,keep349,animal,AUAPLGQ19ISI0,grad_degree,NA,asian_eastAsian,female,35,christianity_catholic,"I think, this one is an animal",,13,BI2A00027,definitely no,-3,11603,india,keep350,animal,AUAPLGQ19ISI0,grad_degree,NA,asian_eastAsian,female,35,christianity_catholic,"I think, this one is an animal",,14,BI2A00016,probably yes,2,3313,india,keep351,animal,AUAPLGQ19ISI0,grad_degree,NA,asian_eastAsian,female,35,christianity_catholic,"I think, this one is an animal",,15,BI2A00047,definitely no,-3,14364,india,keep352,animal,AUAPLGQ19ISI0,grad_degree,NA,asian_eastAsian,female,35,christianity_catholic,"I think, this one is an animal",,16,BI2A00034,definitely no,-3,19948,india,keep353,animal,AUAPLGQ19ISI0,grad_degree,NA,asian_eastAsian,female,35,christianity_catholic,"I think, this one is an animal",,17,BI2A00042,definitely no,-3,17117,india,keep354,animal,AUAPLGQ19ISI0,grad_degree,NA,asian_eastAsian,female,35,christianity_catholic,"I think, this one is an animal",,18,BI2A00017,definitely no,-3,2382,india,keep355,animal,AUAPLGQ19ISI0,grad_degree,NA,asian_eastAsian,female,35,christianity_catholic,"I think, this one is an animal",,19,BI2A00031,definitely no,-3,13899,india,keep356,animal,AUAPLGQ19ISI0,grad_degree,NA,asian_eastAsian,female,35,christianity_catholic,"I think, this one is an animal",,20,BI2A00022,equally yes/no,0,5153,india,keep357,animal,AUAPLGQ19ISI0,grad_degree,NA,asian_eastAsian,female,35,christianity_catholic,"I think, this one is an animal",,21,BI2A00010,maybe yes,1,2420,india,keep358,animal,AUAPLGQ19ISI0,grad_degree,NA,asian_eastAsian,female,35,christianity_catholic,"I think, this one is an animal",,22,BI2A00045,definitely no,-3,12156,india,keep359,animal,AUAPLGQ19ISI0,grad_degree,NA,asian_eastAsian,female,35,christianity_catholic,"I think, this one is an animal",,23,BI2A00029,definitely no,-3,21,india,keep360,animal,AUAPLGQ19ISI0,grad_degree,NA,asian_eastAsian,female,35,christianity_catholic,"I think, this one is an animal",,24,BI2A00035,definitely no,-3,19904,india,keep361,animal,AUAPLGQ19ISI0,grad_degree,NA,asian_eastAsian,female,35,christianity_catholic,"I think, this one is an animal",,25,BI2A00002,definitely yes,3,4965,india,keep362,animal,AUAPLGQ19ISI0,grad_degree,NA,asian_eastAsian,female,35,christianity_catholic,"I think, this one is an animal",,26,BI2A00048,definitely no,-3,9466,india,keep363,animal,AUAPLGQ19ISI0,grad_degree,NA,asian_eastAsian,female,35,christianity_catholic,"I think, this one is an animal",,27,BI2A00026,probably yes,2,2339,india,keep364,animal,AUAPLGQ19ISI0,grad_degree,NA,asian_eastAsian,female,35,christianity_catholic,"I think, this one is an animal",,28,BI2A00037,probably no,-2,12719,india,keep365,animal,AUAPLGQ19ISI0,grad_degree,NA,asian_eastAsian,female,35,christianity_catholic,"I think, this one is an animal",,29,BI2A00008,definitely yes,3,1916,india,keep366,animal,AUAPLGQ19ISI0,grad_degree,NA,asian_eastAsian,female,35,christianity_catholic,"I think, this one is an animal",,30,BI2A00028,equally yes/no,0,21949,india,keep367,animal,AUAPLGQ19ISI0,grad_degree,NA,asian_eastAsian,female,35,christianity_catholic,"I think, this one is an animal",,31,BI2A00036,definitely no,-3,14755,india,keep368,animal,AUAPLGQ19ISI0,grad_degree,NA,asian_eastAsian,female,35,christianity_catholic,"I think, this one is an animal",,32,BI2A00009,definitely yes,3,1901,india,keep369,animal,AUAPLGQ19ISI0,grad_degree,NA,asian_eastAsian,female,35,christianity_catholic,"I think, this one is an animal",,33,BI2A00021,probably no,-2,1764,india,keep370,animal,AUAPLGQ19ISI0,grad_degree,NA,asian_eastAsian,female,35,christianity_catholic,"I think, this one is an animal",,34,BI2A00001,definitely yes,3,1413,india,keep371,animal,AUAPLGQ19ISI0,grad_degree,NA,asian_eastAsian,female,35,christianity_catholic,"I think, this one is an animal",,35,BI2A00005,definitely yes,3,781,india,keep372,animal,AUAPLGQ19ISI0,grad_degree,NA,asian_eastAsian,female,35,christianity_catholic,"I think, this one is an animal",,36,BI2A00020,definitely yes,3,43,india,keep373,animal,AUAPLGQ19ISI0,grad_degree,NA,asian_eastAsian,female,35,christianity_catholic,"I think, this one is an animal",,37,BI2A00014,definitely yes,3,3028,india,keep374,animal,AUAPLGQ19ISI0,grad_degree,NA,asian_eastAsian,female,35,christianity_catholic,"I think, this one is an animal",,38,BI2A00004,definitely yes,3,980,india,keep375,animal,AUAPLGQ19ISI0,grad_degree,NA,asian_eastAsian,female,35,christianity_catholic,"I think, this one is an animal",,39,BI2A00038,definitely no,-3,9724,india,keep376,animal,AUAPLGQ19ISI0,grad_degree,NA,asian_eastAsian,female,35,christianity_catholic,"I think, this one is an animal",,40,BI2A00007,definitely yes,3,1557,india,keep377,animal,AUAPLGQ19ISI0,grad_degree,NA,asian_eastAsian,female,35,christianity_catholic,"I think, this one is an animal",,41,BI2A00015,definitely yes,3,21290,india,keep378,animal,AUAPLGQ19ISI0,grad_degree,NA,asian_eastAsian,female,35,christianity_catholic,"I think, this one is an animal",,42,BI2A00023,definitely no,-3,6773,india,keep379,animal,AUAPLGQ19ISI0,grad_degree,NA,asian_eastAsian,female,35,christianity_catholic,"I think, this one is an animal",,43,BI2A00044,definitely no,-3,12549,india,keep380,animal,AUAPLGQ19ISI0,grad_degree,NA,asian_eastAsian,female,35,christianity_catholic,"I think, this one is an animal",,44,BI2A00003,definitely yes,3,1605,india,keep381,animal,AUAPLGQ19ISI0,grad_degree,NA,asian_eastAsian,female,35,christianity_catholic,"I think, this one is an animal",,45,BI2A00040,definitely no,-3,12341,india,keep382,animal,AUAPLGQ19ISI0,grad_degree,NA,asian_eastAsian,female,35,christianity_catholic,"I think, this one is an animal",,46,BI2A00006,definitely yes,3,1245,india,keep383,animal,AUAPLGQ19ISI0,grad_degree,NA,asian_eastAsian,female,35,christianity_catholic,"I think, this one is an animal",,47,BI2A00019,definitely yes,3,779,india,keep384,animal,AUAPLGQ19ISI0,grad_degree,NA,asian_eastAsian,female,35,christianity_catholic,"I think, this one is an animal",,48,BI2A00024,definitely yes,3,1667,india,keep2065,animal,AT6HH4TKU4WNH,college_bachDegree,NA,white,male,41,christianity_catholic,This one has to be an animal for sure.,,1,BI2A00017,maybe no,-1,2757,us,keep2066,animal,AT6HH4TKU4WNH,college_bachDegree,NA,white,male,41,christianity_catholic,This one has to be an animal for sure.,,2,BI2A00023,maybe yes,1,1885,us,keep2067,animal,AT6HH4TKU4WNH,college_bachDegree,NA,white,male,41,christianity_catholic,This one has to be an animal for sure.,,3,BI2A00029,maybe no,-1,1126,us,keep2068,animal,AT6HH4TKU4WNH,college_bachDegree,NA,white,male,41,christianity_catholic,This one has to be an animal for sure.,,4,BI2A00045,probably no,-2,1598,us,keep2069,animal,AT6HH4TKU4WNH,college_bachDegree,NA,white,male,41,christianity_catholic,This one has to be an animal for sure.,,5,BI2A00011,maybe yes,1,951,us,keep2070,animal,AT6HH4TKU4WNH,college_bachDegree,NA,white,male,41,christianity_catholic,This one has to be an animal for sure.,,6,BI2A00044,definitely no,-3,1102,us,keep2071,animal,AT6HH4TKU4WNH,college_bachDegree,NA,white,male,41,christianity_catholic,This one has to be an animal for sure.,,7,BI2A00019,probably yes,2,735,us,keep2072,animal,AT6HH4TKU4WNH,college_bachDegree,NA,white,male,41,christianity_catholic,This one has to be an animal for sure.,,8,BI2A00034,maybe yes,1,1327,us,keep2073,animal,AT6HH4TKU4WNH,college_bachDegree,NA,white,male,41,christianity_catholic,This one has to be an animal for sure.,,9,BI2A00038,definitely no,-3,966,us,keep2074,animal,AT6HH4TKU4WNH,college_bachDegree,NA,white,male,41,christianity_catholic,This one has to be an animal for sure.,,10,BI2A00035,definitely no,-3,2094,us,keep2075,animal,AT6HH4TKU4WNH,college_bachDegree,NA,white,male,41,christianity_catholic,This one has to be an animal for sure.,,11,BI2A00007,probably yes,2,886,us,keep2076,animal,AT6HH4TKU4WNH,college_bachDegree,NA,white,male,41,christianity_catholic,This one has to be an animal for sure.,,12,BI2A00039,definitely no,-3,1223,us,keep2077,animal,AT6HH4TKU4WNH,college_bachDegree,NA,white,male,41,christianity_catholic,This one has to be an animal for sure.,,13,BI2A00006,definitely yes,3,943,us,keep2078,animal,AT6HH4TKU4WNH,college_bachDegree,NA,white,male,41,christianity_catholic,This one has to be an animal for sure.,,14,BI2A00022,probably yes,2,1222,us,keep2079,animal,AT6HH4TKU4WNH,college_bachDegree,NA,white,male,41,christianity_catholic,This one has to be an animal for sure.,,15,BI2A00005,definitely yes,3,1287,us,keep2080,animal,AT6HH4TKU4WNH,college_bachDegree,NA,white,male,41,christianity_catholic,This one has to be an animal for sure.,,16,BI2A00025,probably no,-2,2126,us,keep2081,animal,AT6HH4TKU4WNH,college_bachDegree,NA,white,male,41,christianity_catholic,This one has to be an animal for sure.,,17,BI2A00016,maybe no,-1,1359,us,keep2082,animal,AT6HH4TKU4WNH,college_bachDegree,NA,white,male,41,christianity_catholic,This one has to be an animal for sure.,,18,BI2A00003,definitely yes,3,1230,us,keep2083,animal,AT6HH4TKU4WNH,college_bachDegree,NA,white,male,41,christianity_catholic,This one has to be an animal for sure.,,19,BI2A00032,equally yes/no,0,1751,us,keep2084,animal,AT6HH4TKU4WNH,college_bachDegree,NA,white,male,41,christianity_catholic,This one has to be an animal for sure.,,20,BI2A00030,maybe no,-1,1366,us,keep2085,animal,AT6HH4TKU4WNH,college_bachDegree,NA,white,male,41,christianity_catholic,This one has to be an animal for sure.,,21,BI2A00020,probably yes,2,1846,us,keep2086,animal,AT6HH4TKU4WNH,college_bachDegree,NA,white,male,41,christianity_catholic,This one has to be an animal for sure.,,22,BI2A00028,maybe yes,1,2406,us,keep2087,animal,AT6HH4TKU4WNH,college_bachDegree,NA,white,male,41,christianity_catholic,This one has to be an animal for sure.,,23,BI2A00008,probably yes,2,1542,us,keep2088,animal,AT6HH4TKU4WNH,college_bachDegree,NA,white,male,41,christianity_catholic,This one has to be an animal for sure.,,24,BI2A00013,maybe yes,1,647,us,keep2089,animal,AT6HH4TKU4WNH,college_bachDegree,NA,white,male,41,christianity_catholic,This one has to be an animal for sure.,,25,BI2A00021,probably no,-2,1039,us,keep2090,animal,AT6HH4TKU4WNH,college_bachDegree,NA,white,male,41,christianity_catholic,This one has to be an animal for sure.,,26,BI2A00004,probably yes,2,1062,us,keep2091,animal,AT6HH4TKU4WNH,college_bachDegree,NA,white,male,41,christianity_catholic,This one has to be an animal for sure.,,27,BI2A00026,probably yes,2,1526,us,keep2092,animal,AT6HH4TKU4WNH,college_bachDegree,NA,white,male,41,christianity_catholic,This one has to be an animal for sure.,,28,BI2A00042,maybe no,-1,981,us,keep2093,animal,AT6HH4TKU4WNH,college_bachDegree,NA,white,male,41,christianity_catholic,This one has to be an animal for sure.,,29,BI2A00040,probably no,-2,1638,us,keep2094,animal,AT6HH4TKU4WNH,college_bachDegree,NA,white,male,41,christianity_catholic,This one has to be an animal for sure.,,30,BI2A00041,definitely no,-3,1639,us,keep2095,animal,AT6HH4TKU4WNH,college_bachDegree,NA,white,male,41,christianity_catholic,This one has to be an animal for sure.,,31,BI2A00015,definitely yes,3,1111,us,keep2096,animal,AT6HH4TKU4WNH,college_bachDegree,NA,white,male,41,christianity_catholic,This one has to be an animal for sure.,,32,BI2A00014,definitely no,-3,1319,us,keep2097,animal,AT6HH4TKU4WNH,college_bachDegree,NA,white,male,41,christianity_catholic,This one has to be an animal for sure.,,33,BI2A00047,definitely no,-3,1591,us,keep2098,animal,AT6HH4TKU4WNH,college_bachDegree,NA,white,male,41,christianity_catholic,This one has to be an animal for sure.,,34,BI2A00024,probably yes,2,1582,us,keep2099,animal,AT6HH4TKU4WNH,college_bachDegree,NA,white,male,41,christianity_catholic,This one has to be an animal for sure.,,35,BI2A00043,equally yes/no,0,967,us,keep2100,animal,AT6HH4TKU4WNH,college_bachDegree,NA,white,male,41,christianity_catholic,This one has to be an animal for sure.,,36,BI2A00018,maybe yes,1,759,us,keep2101,animal,AT6HH4TKU4WNH,college_bachDegree,NA,white,male,41,christianity_catholic,This one has to be an animal for sure.,,37,BI2A00012,probably yes,2,1087,us,keep2102,animal,AT6HH4TKU4WNH,college_bachDegree,NA,white,male,41,christianity_catholic,This one has to be an animal for sure.,,38,BI2A00001,maybe yes,1,598,us,keep2103,animal,AT6HH4TKU4WNH,college_bachDegree,NA,white,male,41,christianity_catholic,This one has to be an animal for sure.,,39,BI2A00002,definitely yes,3,991,us,keep2104,animal,AT6HH4TKU4WNH,college_bachDegree,NA,white,male,41,christianity_catholic,This one has to be an animal for sure.,,40,BI2A00010,probably yes,2,663,us,keep2105,animal,AT6HH4TKU4WNH,college_bachDegree,NA,white,male,41,christianity_catholic,This one has to be an animal for sure.,,41,BI2A00037,maybe no,-1,1367,us,keep2106,animal,AT6HH4TKU4WNH,college_bachDegree,NA,white,male,41,christianity_catholic,This one has to be an animal for sure.,,42,BI2A00046,definitely no,-3,1487,us,keep2107,animal,AT6HH4TKU4WNH,college_bachDegree,NA,white,male,41,christianity_catholic,This one has to be an animal for sure.,,43,BI2A00033,definitely no,-3,1631,us,keep2108,animal,AT6HH4TKU4WNH,college_bachDegree,NA,white,male,41,christianity_catholic,This one has to be an animal for sure.,,44,BI2A00048,definitely no,-3,598,us,keep2109,animal,AT6HH4TKU4WNH,college_bachDegree,NA,white,male,41,christianity_catholic,This one has to be an animal for sure.,,45,BI2A00027,definitely no,-3,709,us,keep2110,animal,AT6HH4TKU4WNH,college_bachDegree,NA,white,male,41,christianity_catholic,This one has to be an animal for sure.,,46,BI2A00009,definitely yes,3,1375,us,keep2111,animal,AT6HH4TKU4WNH,college_bachDegree,NA,white,male,41,christianity_catholic,This one has to be an animal for sure.,,47,BI2A00036,definitely no,-3,1319,us,keep2112,animal,AT6HH4TKU4WNH,college_bachDegree,NA,white,male,41,christianity_catholic,This one has to be an animal for sure.,,48,BI2A00031,definitely no,-3,1415,us,keep481,animal,ASJSRTPWPGMVW,college_bachDegree,NA,asian_southAsian,female,23,islam,This is an animal,,1,BI2A00018,maybe yes,1,5034,india,keep482,animal,ASJSRTPWPGMVW,college_bachDegree,NA,asian_southAsian,female,23,islam,This is an animal,,2,BI2A00013,definitely yes,3,4147,india,keep483,animal,ASJSRTPWPGMVW,college_bachDegree,NA,asian_southAsian,female,23,islam,This is an animal,,3,BI2A00044,definitely no,-3,3191,india,keep484,animal,ASJSRTPWPGMVW,college_bachDegree,NA,asian_southAsian,female,23,islam,This is an animal,,4,BI2A00006,definitely yes,3,2222,india,keep485,animal,ASJSRTPWPGMVW,college_bachDegree,NA,asian_southAsian,female,23,islam,This is an animal,,5,BI2A00031,maybe yes,1,2797,india,keep486,animal,ASJSRTPWPGMVW,college_bachDegree,NA,asian_southAsian,female,23,islam,This is an animal,,6,BI2A00015,probably yes,2,2568,india,keep487,animal,ASJSRTPWPGMVW,college_bachDegree,NA,asian_southAsian,female,23,islam,This is an animal,,7,BI2A00005,maybe yes,1,1457,india,keep488,animal,ASJSRTPWPGMVW,college_bachDegree,NA,asian_southAsian,female,23,islam,This is an animal,,8,BI2A00033,probably no,-2,1877,india,keep489,animal,ASJSRTPWPGMVW,college_bachDegree,NA,asian_southAsian,female,23,islam,This is an animal,,9,BI2A00026,equally yes/no,0,4016,india,keep490,animal,ASJSRTPWPGMVW,college_bachDegree,NA,asian_southAsian,female,23,islam,This is an animal,,10,BI2A00019,probably yes,2,1911,india,keep491,animal,ASJSRTPWPGMVW,college_bachDegree,NA,asian_southAsian,female,23,islam,This is an animal,,11,BI2A00024,definitely yes,3,2390,india,keep492,animal,ASJSRTPWPGMVW,college_bachDegree,NA,asian_southAsian,female,23,islam,This is an animal,,12,BI2A00032,maybe no,-1,2127,india,keep493,animal,ASJSRTPWPGMVW,college_bachDegree,NA,asian_southAsian,female,23,islam,This is an animal,,13,BI2A00028,maybe no,-1,2726,india,keep494,animal,ASJSRTPWPGMVW,college_bachDegree,NA,asian_southAsian,female,23,islam,This is an animal,,14,BI2A00002,definitely yes,3,2138,india,keep495,animal,ASJSRTPWPGMVW,college_bachDegree,NA,asian_southAsian,female,23,islam,This is an animal,,15,BI2A00041,maybe no,-1,3319,india,keep496,animal,ASJSRTPWPGMVW,college_bachDegree,NA,asian_southAsian,female,23,islam,This is an animal,,16,BI2A00047,equally yes/no,0,4139,india,keep497,animal,ASJSRTPWPGMVW,college_bachDegree,NA,asian_southAsian,female,23,islam,This is an animal,,17,BI2A00016,maybe yes,1,2112,india,keep498,animal,ASJSRTPWPGMVW,college_bachDegree,NA,asian_southAsian,female,23,islam,This is an animal,,18,BI2A00011,definitely yes,3,1789,india,keep499,animal,ASJSRTPWPGMVW,college_bachDegree,NA,asian_southAsian,female,23,islam,This is an animal,,19,BI2A00027,probably no,-2,3630,india,keep500,animal,ASJSRTPWPGMVW,college_bachDegree,NA,asian_southAsian,female,23,islam,This is an animal,,20,BI2A00004,probably yes,2,1777,india,keep501,animal,ASJSRTPWPGMVW,college_bachDegree,NA,asian_southAsian,female,23,islam,This is an animal,,21,BI2A00039,maybe no,-1,2908,india,keep502,animal,ASJSRTPWPGMVW,college_bachDegree,NA,asian_southAsian,female,23,islam,This is an animal,,22,BI2A00020,probably yes,2,1955,india,keep503,animal,ASJSRTPWPGMVW,college_bachDegree,NA,asian_southAsian,female,23,islam,This is an animal,,23,BI2A00045,definitely no,-3,2112,india,keep504,animal,ASJSRTPWPGMVW,college_bachDegree,NA,asian_southAsian,female,23,islam,This is an animal,,24,BI2A00042,probably no,-2,3452,india,keep505,animal,ASJSRTPWPGMVW,college_bachDegree,NA,asian_southAsian,female,23,islam,This is an animal,,25,BI2A00022,maybe no,-1,1542,india,keep506,animal,ASJSRTPWPGMVW,college_bachDegree,NA,asian_southAsian,female,23,islam,This is an animal,,26,BI2A00035,definitely no,-3,2434,india,keep507,animal,ASJSRTPWPGMVW,college_bachDegree,NA,asian_southAsian,female,23,islam,This is an animal,,27,BI2A00021,maybe no,-1,1741,india,keep508,animal,ASJSRTPWPGMVW,college_bachDegree,NA,asian_southAsian,female,23,islam,This is an animal,,28,BI2A00043,probably no,-2,1624,india,keep509,animal,ASJSRTPWPGMVW,college_bachDegree,NA,asian_southAsian,female,23,islam,This is an animal,,29,BI2A00001,definitely yes,3,2989,india,keep510,animal,ASJSRTPWPGMVW,college_bachDegree,NA,asian_southAsian,female,23,islam,This is an animal,,30,BI2A00040,maybe no,-1,2411,india,keep511,animal,ASJSRTPWPGMVW,college_bachDegree,NA,asian_southAsian,female,23,islam,This is an animal,,31,BI2A00003,probably yes,2,6461,india,keep512,animal,ASJSRTPWPGMVW,college_bachDegree,NA,asian_southAsian,female,23,islam,This is an animal,,32,BI2A00029,equally yes/no,0,1874,india,keep513,animal,ASJSRTPWPGMVW,college_bachDegree,NA,asian_southAsian,female,23,islam,This is an animal,,33,BI2A00014,equally yes/no,0,1407,india,keep514,animal,ASJSRTPWPGMVW,college_bachDegree,NA,asian_southAsian,female,23,islam,This is an animal,,34,BI2A00010,maybe no,-1,2247,india,keep515,animal,ASJSRTPWPGMVW,college_bachDegree,NA,asian_southAsian,female,23,islam,This is an animal,,35,BI2A00023,maybe no,-1,2615,india,keep516,animal,ASJSRTPWPGMVW,college_bachDegree,NA,asian_southAsian,female,23,islam,This is an animal,,36,BI2A00036,equally yes/no,0,1480,india,keep517,animal,ASJSRTPWPGMVW,college_bachDegree,NA,asian_southAsian,female,23,islam,This is an animal,,37,BI2A00012,maybe no,-1,2223,india,keep518,animal,ASJSRTPWPGMVW,college_bachDegree,NA,asian_southAsian,female,23,islam,This is an animal,,38,BI2A00007,probably yes,2,1876,india,keep519,animal,ASJSRTPWPGMVW,college_bachDegree,NA,asian_southAsian,female,23,islam,This is an animal,,39,BI2A00025,maybe yes,1,2268,india,keep520,animal,ASJSRTPWPGMVW,college_bachDegree,NA,asian_southAsian,female,23,islam,This is an animal,,40,BI2A00017,probably no,-2,1816,india,keep521,animal,ASJSRTPWPGMVW,college_bachDegree,NA,asian_southAsian,female,23,islam,This is an animal,,41,BI2A00009,probably yes,2,7405,india,keep522,animal,ASJSRTPWPGMVW,college_bachDegree,NA,asian_southAsian,female,23,islam,This is an animal,,42,BI2A00037,maybe no,-1,2533,india,keep523,animal,ASJSRTPWPGMVW,college_bachDegree,NA,asian_southAsian,female,23,islam,This is an animal,,43,BI2A00034,probably no,-2,2092,india,keep524,animal,ASJSRTPWPGMVW,college_bachDegree,NA,asian_southAsian,female,23,islam,This is an animal,,44,BI2A00008,probably yes,2,2342,india,keep525,animal,ASJSRTPWPGMVW,college_bachDegree,NA,asian_southAsian,female,23,islam,This is an animal,,45,BI2A00046,definitely no,-3,3149,india,keep526,animal,ASJSRTPWPGMVW,college_bachDegree,NA,asian_southAsian,female,23,islam,This is an animal,,46,BI2A00048,equally yes/no,0,4767,india,keep527,animal,ASJSRTPWPGMVW,college_bachDegree,NA,asian_southAsian,female,23,islam,This is an animal,,47,BI2A00030,maybe no,-1,2186,india,keep528,animal,ASJSRTPWPGMVW,college_bachDegree,NA,asian_southAsian,female,23,islam,This is an animal,,48,BI2A00038,probably no,-2,1736,india,keep2401,animal,ARVXIBUCA8WDZ,hs_diploma,NA,white,male,28,none,I'm pretty sure this one is an animal.,,1,BI2A00008,probably yes,2,3319,us,keep2402,animal,ARVXIBUCA8WDZ,hs_diploma,NA,white,male,28,none,I'm pretty sure this one is an animal.,,2,BI2A00015,maybe yes,1,2670,us,keep2403,animal,ARVXIBUCA8WDZ,hs_diploma,NA,white,male,28,none,I'm pretty sure this one is an animal.,,3,BI2A00036,definitely no,-3,2695,us,keep2404,animal,ARVXIBUCA8WDZ,hs_diploma,NA,white,male,28,none,I'm pretty sure this one is an animal.,,4,BI2A00011,definitely yes,3,2039,us,keep2405,animal,ARVXIBUCA8WDZ,hs_diploma,NA,white,male,28,none,I'm pretty sure this one is an animal.,,5,BI2A00012,definitely no,-3,2079,us,keep2406,animal,ARVXIBUCA8WDZ,hs_diploma,NA,white,male,28,none,I'm pretty sure this one is an animal.,,6,BI2A00033,definitely no,-3,1095,us,keep2407,animal,ARVXIBUCA8WDZ,hs_diploma,NA,white,male,28,none,I'm pretty sure this one is an animal.,,7,BI2A00001,probably yes,2,2175,us,keep2408,animal,ARVXIBUCA8WDZ,hs_diploma,NA,white,male,28,none,I'm pretty sure this one is an animal.,,8,BI2A00034,probably no,-2,2263,us,keep2409,animal,ARVXIBUCA8WDZ,hs_diploma,NA,white,male,28,none,I'm pretty sure this one is an animal.,,9,BI2A00041,probably no,-2,1815,us,keep2410,animal,ARVXIBUCA8WDZ,hs_diploma,NA,white,male,28,none,I'm pretty sure this one is an animal.,,10,BI2A00018,definitely no,-3,1607,us,keep2411,animal,ARVXIBUCA8WDZ,hs_diploma,NA,white,male,28,none,I'm pretty sure this one is an animal.,,11,BI2A00003,definitely yes,3,1159,us,keep2412,animal,ARVXIBUCA8WDZ,hs_diploma,NA,white,male,28,none,I'm pretty sure this one is an animal.,,12,BI2A00042,definitely no,-3,1271,us,keep2413,animal,ARVXIBUCA8WDZ,hs_diploma,NA,white,male,28,none,I'm pretty sure this one is an animal.,,13,BI2A00030,definitely no,-3,1543,us,keep2414,animal,ARVXIBUCA8WDZ,hs_diploma,NA,white,male,28,none,I'm pretty sure this one is an animal.,,14,BI2A00013,probably yes,2,1263,us,keep2415,animal,ARVXIBUCA8WDZ,hs_diploma,NA,white,male,28,none,I'm pretty sure this one is an animal.,,15,BI2A00040,definitely no,-3,918,us,keep2416,animal,ARVXIBUCA8WDZ,hs_diploma,NA,white,male,28,none,I'm pretty sure this one is an animal.,,16,BI2A00006,definitely yes,3,1223,us,keep2417,animal,ARVXIBUCA8WDZ,hs_diploma,NA,white,male,28,none,I'm pretty sure this one is an animal.,,17,BI2A00023,definitely no,-3,1047,us,keep2418,animal,ARVXIBUCA8WDZ,hs_diploma,NA,white,male,28,none,I'm pretty sure this one is an animal.,,18,BI2A00028,definitely no,-3,895,us,keep2419,animal,ARVXIBUCA8WDZ,hs_diploma,NA,white,male,28,none,I'm pretty sure this one is an animal.,,19,BI2A00010,maybe yes,1,1903,us,keep2420,animal,ARVXIBUCA8WDZ,hs_diploma,NA,white,male,28,none,I'm pretty sure this one is an animal.,,20,BI2A00031,definitely no,-3,1071,us,keep2421,animal,ARVXIBUCA8WDZ,hs_diploma,NA,white,male,28,none,I'm pretty sure this one is an animal.,,21,BI2A00032,definitely no,-3,1255,us,keep2422,animal,ARVXIBUCA8WDZ,hs_diploma,NA,white,male,28,none,I'm pretty sure this one is an animal.,,22,BI2A00002,definitely yes,3,1430,us,keep2423,animal,ARVXIBUCA8WDZ,hs_diploma,NA,white,male,28,none,I'm pretty sure this one is an animal.,,23,BI2A00019,probably yes,2,1168,us,keep2424,animal,ARVXIBUCA8WDZ,hs_diploma,NA,white,male,28,none,I'm pretty sure this one is an animal.,,24,BI2A00007,probably yes,2,1727,us,keep2425,animal,ARVXIBUCA8WDZ,hs_diploma,NA,white,male,28,none,I'm pretty sure this one is an animal.,,25,BI2A00043,definitely no,-3,1551,us,keep2426,animal,ARVXIBUCA8WDZ,hs_diploma,NA,white,male,28,none,I'm pretty sure this one is an animal.,,26,BI2A00046,definitely no,-3,1886,us,keep2427,animal,ARVXIBUCA8WDZ,hs_diploma,NA,white,male,28,none,I'm pretty sure this one is an animal.,,27,BI2A00009,probably yes,2,1887,us,keep2428,animal,ARVXIBUCA8WDZ,hs_diploma,NA,white,male,28,none,I'm pretty sure this one is an animal.,,28,BI2A00045,definitely no,-3,1222,us,keep2429,animal,ARVXIBUCA8WDZ,hs_diploma,NA,white,male,28,none,I'm pretty sure this one is an animal.,,29,BI2A00017,definitely no,-3,1167,us,keep2430,animal,ARVXIBUCA8WDZ,hs_diploma,NA,white,male,28,none,I'm pretty sure this one is an animal.,,30,BI2A00022,probably no,-2,2855,us,keep2431,animal,ARVXIBUCA8WDZ,hs_diploma,NA,white,male,28,none,I'm pretty sure this one is an animal.,,31,BI2A00025,probably no,-2,1166,us,keep2432,animal,ARVXIBUCA8WDZ,hs_diploma,NA,white,male,28,none,I'm pretty sure this one is an animal.,,32,BI2A00027,definitely no,-3,1216,us,keep2433,animal,ARVXIBUCA8WDZ,hs_diploma,NA,white,male,28,none,I'm pretty sure this one is an animal.,,33,BI2A00021,definitely no,-3,838,us,keep2434,animal,ARVXIBUCA8WDZ,hs_diploma,NA,white,male,28,none,I'm pretty sure this one is an animal.,,34,BI2A00004,definitely yes,3,1352,us,keep2435,animal,ARVXIBUCA8WDZ,hs_diploma,NA,white,male,28,none,I'm pretty sure this one is an animal.,,35,BI2A00026,maybe no,-1,1487,us,keep2436,animal,ARVXIBUCA8WDZ,hs_diploma,NA,white,male,28,none,I'm pretty sure this one is an animal.,,36,BI2A00047,definitely no,-3,1142,us,keep2437,animal,ARVXIBUCA8WDZ,hs_diploma,NA,white,male,28,none,I'm pretty sure this one is an animal.,,37,BI2A00038,definitely no,-3,824,us,keep2438,animal,ARVXIBUCA8WDZ,hs_diploma,NA,white,male,28,none,I'm pretty sure this one is an animal.,,38,BI2A00035,definitely no,-3,710,us,keep2439,animal,ARVXIBUCA8WDZ,hs_diploma,NA,white,male,28,none,I'm pretty sure this one is an animal.,,39,BI2A00014,maybe yes,1,2264,us,keep2440,animal,ARVXIBUCA8WDZ,hs_diploma,NA,white,male,28,none,I'm pretty sure this one is an animal.,,40,BI2A00048,definitely no,-3,942,us,keep2441,animal,ARVXIBUCA8WDZ,hs_diploma,NA,white,male,28,none,I'm pretty sure this one is an animal.,,41,BI2A00029,definitely no,-3,848,us,keep2442,animal,ARVXIBUCA8WDZ,hs_diploma,NA,white,male,28,none,I'm pretty sure this one is an animal.,,42,BI2A00020,probably no,-2,1527,us,keep2443,animal,ARVXIBUCA8WDZ,hs_diploma,NA,white,male,28,none,I'm pretty sure this one is an animal.,,43,BI2A00024,definitely yes,3,2558,us,keep2444,animal,ARVXIBUCA8WDZ,hs_diploma,NA,white,male,28,none,I'm pretty sure this one is an animal.,,44,BI2A00005,definitely yes,3,1008,us,keep2445,animal,ARVXIBUCA8WDZ,hs_diploma,NA,white,male,28,none,I'm pretty sure this one is an animal.,,45,BI2A00016,probably yes,2,2199,us,keep2446,animal,ARVXIBUCA8WDZ,hs_diploma,NA,white,male,28,none,I'm pretty sure this one is an animal.,,46,BI2A00039,definitely no,-3,1016,us,keep2447,animal,ARVXIBUCA8WDZ,hs_diploma,NA,white,male,28,none,I'm pretty sure this one is an animal.,,47,BI2A00044,definitely no,-3,663,us,keep2448,animal,ARVXIBUCA8WDZ,hs_diploma,NA,white,male,28,none,I'm pretty sure this one is an animal.,,48,BI2A00037,definitely no,-3,951,us,keep1345,animal,AR50UBGSH10FJ,grad_degree,NA,asian_southAsian,male,30,christianity_catholic,"""This one is an animal i think""",no,1,BI2A00030,definitely no,-3,8886,india,keep1346,animal,AR50UBGSH10FJ,grad_degree,NA,asian_southAsian,male,30,christianity_catholic,"""This one is an animal i think""",no,2,BI2A00021,definitely no,-3,3810,india,keep1347,animal,AR50UBGSH10FJ,grad_degree,NA,asian_southAsian,male,30,christianity_catholic,"""This one is an animal i think""",no,3,BI2A00023,definitely no,-3,3373,india,keep1348,animal,AR50UBGSH10FJ,grad_degree,NA,asian_southAsian,male,30,christianity_catholic,"""This one is an animal i think""",no,4,BI2A00013,maybe yes,1,6070,india,keep1349,animal,AR50UBGSH10FJ,grad_degree,NA,asian_southAsian,male,30,christianity_catholic,"""This one is an animal i think""",no,5,BI2A00044,definitely no,-3,2063,india,keep1350,animal,AR50UBGSH10FJ,grad_degree,NA,asian_southAsian,male,30,christianity_catholic,"""This one is an animal i think""",no,6,BI2A00039,definitely no,-3,3123,india,keep1351,animal,AR50UBGSH10FJ,grad_degree,NA,asian_southAsian,male,30,christianity_catholic,"""This one is an animal i think""",no,7,BI2A00007,probably yes,2,2077,india,keep1352,animal,AR50UBGSH10FJ,grad_degree,NA,asian_southAsian,male,30,christianity_catholic,"""This one is an animal i think""",no,8,BI2A00012,maybe yes,1,2566,india,keep1353,animal,AR50UBGSH10FJ,grad_degree,NA,asian_southAsian,male,30,christianity_catholic,"""This one is an animal i think""",no,9,BI2A00036,probably no,-2,2168,india,keep1354,animal,AR50UBGSH10FJ,grad_degree,NA,asian_southAsian,male,30,christianity_catholic,"""This one is an animal i think""",no,10,BI2A00010,probably yes,2,2241,india,keep1355,animal,AR50UBGSH10FJ,grad_degree,NA,asian_southAsian,male,30,christianity_catholic,"""This one is an animal i think""",no,11,BI2A00027,definitely no,-3,1866,india,keep1356,animal,AR50UBGSH10FJ,grad_degree,NA,asian_southAsian,male,30,christianity_catholic,"""This one is an animal i think""",no,12,BI2A00026,probably yes,2,2370,india,keep1357,animal,AR50UBGSH10FJ,grad_degree,NA,asian_southAsian,male,30,christianity_catholic,"""This one is an animal i think""",no,13,BI2A00042,probably no,-2,3167,india,keep1358,animal,AR50UBGSH10FJ,grad_degree,NA,asian_southAsian,male,30,christianity_catholic,"""This one is an animal i think""",no,14,BI2A00034,maybe yes,1,2413,india,keep1359,animal,AR50UBGSH10FJ,grad_degree,NA,asian_southAsian,male,30,christianity_catholic,"""This one is an animal i think""",no,15,BI2A00028,maybe yes,1,1540,india,keep1360,animal,AR50UBGSH10FJ,grad_degree,NA,asian_southAsian,male,30,christianity_catholic,"""This one is an animal i think""",no,16,BI2A00003,definitely yes,3,1640,india,keep1361,animal,AR50UBGSH10FJ,grad_degree,NA,asian_southAsian,male,30,christianity_catholic,"""This one is an animal i think""",no,17,BI2A00024,definitely yes,3,1833,india,keep1362,animal,AR50UBGSH10FJ,grad_degree,NA,asian_southAsian,male,30,christianity_catholic,"""This one is an animal i think""",no,18,BI2A00014,probably yes,2,1927,india,keep1363,animal,AR50UBGSH10FJ,grad_degree,NA,asian_southAsian,male,30,christianity_catholic,"""This one is an animal i think""",no,19,BI2A00016,probably yes,2,1179,india,keep1364,animal,AR50UBGSH10FJ,grad_degree,NA,asian_southAsian,male,30,christianity_catholic,"""This one is an animal i think""",no,20,BI2A00020,probably yes,2,1394,india,keep1365,animal,AR50UBGSH10FJ,grad_degree,NA,asian_southAsian,male,30,christianity_catholic,"""This one is an animal i think""",no,21,BI2A00038,probably no,-2,2270,india,keep1366,animal,AR50UBGSH10FJ,grad_degree,NA,asian_southAsian,male,30,christianity_catholic,"""This one is an animal i think""",no,22,BI2A00045,definitely no,-3,1819,india,keep1367,animal,AR50UBGSH10FJ,grad_degree,NA,asian_southAsian,male,30,christianity_catholic,"""This one is an animal i think""",no,23,BI2A00022,probably yes,2,3050,india,keep1368,animal,AR50UBGSH10FJ,grad_degree,NA,asian_southAsian,male,30,christianity_catholic,"""This one is an animal i think""",no,24,BI2A00015,definitely yes,3,1467,india,keep1369,animal,AR50UBGSH10FJ,grad_degree,NA,asian_southAsian,male,30,christianity_catholic,"""This one is an animal i think""",no,25,BI2A00001,definitely yes,3,1477,india,keep1370,animal,AR50UBGSH10FJ,grad_degree,NA,asian_southAsian,male,30,christianity_catholic,"""This one is an animal i think""",no,26,BI2A00031,definitely no,-3,2633,india,keep1371,animal,AR50UBGSH10FJ,grad_degree,NA,asian_southAsian,male,30,christianity_catholic,"""This one is an animal i think""",no,27,BI2A00035,definitely no,-3,1576,india,keep1372,animal,AR50UBGSH10FJ,grad_degree,NA,asian_southAsian,male,30,christianity_catholic,"""This one is an animal i think""",no,28,BI2A00006,definitely yes,3,1810,india,keep1373,animal,AR50UBGSH10FJ,grad_degree,NA,asian_southAsian,male,30,christianity_catholic,"""This one is an animal i think""",no,29,BI2A00043,maybe no,-1,5247,india,keep1374,animal,AR50UBGSH10FJ,grad_degree,NA,asian_southAsian,male,30,christianity_catholic,"""This one is an animal i think""",no,30,BI2A00005,definitely yes,3,1526,india,keep1375,animal,AR50UBGSH10FJ,grad_degree,NA,asian_southAsian,male,30,christianity_catholic,"""This one is an animal i think""",no,31,BI2A00011,definitely yes,3,1660,india,keep1376,animal,AR50UBGSH10FJ,grad_degree,NA,asian_southAsian,male,30,christianity_catholic,"""This one is an animal i think""",no,32,BI2A00004,definitely yes,3,1201,india,keep1377,animal,AR50UBGSH10FJ,grad_degree,NA,asian_southAsian,male,30,christianity_catholic,"""This one is an animal i think""",no,33,BI2A00047,definitely no,-3,2527,india,keep1378,animal,AR50UBGSH10FJ,grad_degree,NA,asian_southAsian,male,30,christianity_catholic,"""This one is an animal i think""",no,34,BI2A00046,definitely no,-3,1606,india,keep1379,animal,AR50UBGSH10FJ,grad_degree,NA,asian_southAsian,male,30,christianity_catholic,"""This one is an animal i think""",no,35,BI2A00002,definitely yes,3,1527,india,keep1380,animal,AR50UBGSH10FJ,grad_degree,NA,asian_southAsian,male,30,christianity_catholic,"""This one is an animal i think""",no,36,BI2A00040,definitely no,-3,1976,india,keep1381,animal,AR50UBGSH10FJ,grad_degree,NA,asian_southAsian,male,30,christianity_catholic,"""This one is an animal i think""",no,37,BI2A00017,maybe no,-1,2930,india,keep1382,animal,AR50UBGSH10FJ,grad_degree,NA,asian_southAsian,male,30,christianity_catholic,"""This one is an animal i think""",no,38,BI2A00033,probably no,-2,2337,india,keep1383,animal,AR50UBGSH10FJ,grad_degree,NA,asian_southAsian,male,30,christianity_catholic,"""This one is an animal i think""",no,39,BI2A00041,probably no,-2,2022,india,keep1384,animal,AR50UBGSH10FJ,grad_degree,NA,asian_southAsian,male,30,christianity_catholic,"""This one is an animal i think""",no,40,BI2A00009,definitely yes,3,1600,india,keep1385,animal,AR50UBGSH10FJ,grad_degree,NA,asian_southAsian,male,30,christianity_catholic,"""This one is an animal i think""",no,41,BI2A00025,definitely yes,3,1097,india,keep1386,animal,AR50UBGSH10FJ,grad_degree,NA,asian_southAsian,male,30,christianity_catholic,"""This one is an animal i think""",no,42,BI2A00029,probably yes,2,1989,india,keep1387,animal,AR50UBGSH10FJ,grad_degree,NA,asian_southAsian,male,30,christianity_catholic,"""This one is an animal i think""",no,43,BI2A00037,probably no,-2,2800,india,keep1388,animal,AR50UBGSH10FJ,grad_degree,NA,asian_southAsian,male,30,christianity_catholic,"""This one is an animal i think""",no,44,BI2A00032,probably no,-2,2854,india,keep1389,animal,AR50UBGSH10FJ,grad_degree,NA,asian_southAsian,male,30,christianity_catholic,"""This one is an animal i think""",no,45,BI2A00048,definitely no,-3,2603,india,keep1390,animal,AR50UBGSH10FJ,grad_degree,NA,asian_southAsian,male,30,christianity_catholic,"""This one is an animal i think""",no,46,BI2A00018,maybe no,-1,2560,india,keep1391,animal,AR50UBGSH10FJ,grad_degree,NA,asian_southAsian,male,30,christianity_catholic,"""This one is an animal i think""",no,47,BI2A00008,probably yes,2,1372,india,keep1392,animal,AR50UBGSH10FJ,grad_degree,NA,asian_southAsian,male,30,christianity_catholic,"""This one is an animal i think""",no,48,BI2A00019,definitely yes,3,4307,india,keep1537,animal,AP9V6D1JRAUCP,college_bachDegree,NA,asian_southAsian,male,36,hinduism,i think that is one this an animal,Nice,1,BI2A00008,definitely yes,3,123801,india,keep1538,animal,AP9V6D1JRAUCP,college_bachDegree,NA,asian_southAsian,male,36,hinduism,i think that is one this an animal,Nice,2,BI2A00002,definitely yes,3,112,india,keep1539,animal,AP9V6D1JRAUCP,college_bachDegree,NA,asian_southAsian,male,36,hinduism,i think that is one this an animal,Nice,3,BI2A00030,definitely yes,3,39127,india,keep1540,animal,AP9V6D1JRAUCP,college_bachDegree,NA,asian_southAsian,male,36,hinduism,i think that is one this an animal,Nice,4,BI2A00026,definitely yes,3,5806,india,keep1541,animal,AP9V6D1JRAUCP,college_bachDegree,NA,asian_southAsian,male,36,hinduism,i think that is one this an animal,Nice,5,BI2A00036,definitely yes,3,22293,india,keep1542,animal,AP9V6D1JRAUCP,college_bachDegree,NA,asian_southAsian,male,36,hinduism,i think that is one this an animal,Nice,6,BI2A00004,definitely yes,3,30507,india,keep1543,animal,AP9V6D1JRAUCP,college_bachDegree,NA,asian_southAsian,male,36,hinduism,i think that is one this an animal,Nice,7,BI2A00040,definitely yes,3,5276,india,keep1544,animal,AP9V6D1JRAUCP,college_bachDegree,NA,asian_southAsian,male,36,hinduism,i think that is one this an animal,Nice,8,BI2A00007,definitely no,-3,39736,india,keep1545,animal,AP9V6D1JRAUCP,college_bachDegree,NA,asian_southAsian,male,36,hinduism,i think that is one this an animal,Nice,9,BI2A00046,definitely no,-3,1988,india,keep1546,animal,AP9V6D1JRAUCP,college_bachDegree,NA,asian_southAsian,male,36,hinduism,i think that is one this an animal,Nice,10,BI2A00039,definitely no,-3,124,india,keep1547,animal,AP9V6D1JRAUCP,college_bachDegree,NA,asian_southAsian,male,36,hinduism,i think that is one this an animal,Nice,11,BI2A00032,definitely no,-3,1521,india,keep1548,animal,AP9V6D1JRAUCP,college_bachDegree,NA,asian_southAsian,male,36,hinduism,i think that is one this an animal,Nice,12,BI2A00018,definitely no,-3,3628,india,keep1549,animal,AP9V6D1JRAUCP,college_bachDegree,NA,asian_southAsian,male,36,hinduism,i think that is one this an animal,Nice,13,BI2A00016,definitely yes,3,2805,india,keep1550,animal,AP9V6D1JRAUCP,college_bachDegree,NA,asian_southAsian,male,36,hinduism,i think that is one this an animal,Nice,14,BI2A00015,definitely yes,3,8394,india,keep1551,animal,AP9V6D1JRAUCP,college_bachDegree,NA,asian_southAsian,male,36,hinduism,i think that is one this an animal,Nice,15,BI2A00011,definitely yes,3,3436,india,keep1552,animal,AP9V6D1JRAUCP,college_bachDegree,NA,asian_southAsian,male,36,hinduism,i think that is one this an animal,Nice,16,BI2A00020,definitely yes,3,2027,india,keep1553,animal,AP9V6D1JRAUCP,college_bachDegree,NA,asian_southAsian,male,36,hinduism,i think that is one this an animal,Nice,17,BI2A00003,definitely yes,3,9373,india,keep1554,animal,AP9V6D1JRAUCP,college_bachDegree,NA,asian_southAsian,male,36,hinduism,i think that is one this an animal,Nice,18,BI2A00037,definitely yes,3,2825,india,keep1555,animal,AP9V6D1JRAUCP,college_bachDegree,NA,asian_southAsian,male,36,hinduism,i think that is one this an animal,Nice,19,BI2A00006,definitely yes,3,5092,india,keep1556,animal,AP9V6D1JRAUCP,college_bachDegree,NA,asian_southAsian,male,36,hinduism,i think that is one this an animal,Nice,20,BI2A00043,definitely yes,3,213,india,keep1557,animal,AP9V6D1JRAUCP,college_bachDegree,NA,asian_southAsian,male,36,hinduism,i think that is one this an animal,Nice,21,BI2A00014,definitely no,-3,26714,india,keep1558,animal,AP9V6D1JRAUCP,college_bachDegree,NA,asian_southAsian,male,36,hinduism,i think that is one this an animal,Nice,22,BI2A00013,definitely yes,3,20949,india,keep1559,animal,AP9V6D1JRAUCP,college_bachDegree,NA,asian_southAsian,male,36,hinduism,i think that is one this an animal,Nice,23,BI2A00001,definitely yes,3,7162,india,keep1560,animal,AP9V6D1JRAUCP,college_bachDegree,NA,asian_southAsian,male,36,hinduism,i think that is one this an animal,Nice,24,BI2A00009,definitely yes,3,4047,india,keep1561,animal,AP9V6D1JRAUCP,college_bachDegree,NA,asian_southAsian,male,36,hinduism,i think that is one this an animal,Nice,25,BI2A00017,definitely no,-3,9322,india,keep1562,animal,AP9V6D1JRAUCP,college_bachDegree,NA,asian_southAsian,male,36,hinduism,i think that is one this an animal,Nice,26,BI2A00024,definitely yes,3,4766,india,keep1563,animal,AP9V6D1JRAUCP,college_bachDegree,NA,asian_southAsian,male,36,hinduism,i think that is one this an animal,Nice,27,BI2A00010,definitely yes,3,8180,india,keep1564,animal,AP9V6D1JRAUCP,college_bachDegree,NA,asian_southAsian,male,36,hinduism,i think that is one this an animal,Nice,28,BI2A00034,definitely yes,3,1266,india,keep1565,animal,AP9V6D1JRAUCP,college_bachDegree,NA,asian_southAsian,male,36,hinduism,i think that is one this an animal,Nice,29,BI2A00023,definitely yes,3,8927,india,keep1566,animal,AP9V6D1JRAUCP,college_bachDegree,NA,asian_southAsian,male,36,hinduism,i think that is one this an animal,Nice,30,BI2A00027,definitely no,-3,2771,india,keep1567,animal,AP9V6D1JRAUCP,college_bachDegree,NA,asian_southAsian,male,36,hinduism,i think that is one this an animal,Nice,31,BI2A00042,definitely no,-3,963,india,keep1568,animal,AP9V6D1JRAUCP,college_bachDegree,NA,asian_southAsian,male,36,hinduism,i think that is one this an animal,Nice,32,BI2A00047,definitely no,-3,837,india,keep1569,animal,AP9V6D1JRAUCP,college_bachDegree,NA,asian_southAsian,male,36,hinduism,i think that is one this an animal,Nice,33,BI2A00048,definitely yes,3,1971,india,keep1570,animal,AP9V6D1JRAUCP,college_bachDegree,NA,asian_southAsian,male,36,hinduism,i think that is one this an animal,Nice,34,BI2A00035,definitely yes,3,150,india,keep1571,animal,AP9V6D1JRAUCP,college_bachDegree,NA,asian_southAsian,male,36,hinduism,i think that is one this an animal,Nice,35,BI2A00033,definitely yes,3,766,india,keep1572,animal,AP9V6D1JRAUCP,college_bachDegree,NA,asian_southAsian,male,36,hinduism,i think that is one this an animal,Nice,36,BI2A00028,definitely yes,3,781,india,keep1573,animal,AP9V6D1JRAUCP,college_bachDegree,NA,asian_southAsian,male,36,hinduism,i think that is one this an animal,Nice,37,BI2A00005,definitely no,-3,9277,india,keep1574,animal,AP9V6D1JRAUCP,college_bachDegree,NA,asian_southAsian,male,36,hinduism,i think that is one this an animal,Nice,38,BI2A00019,definitely yes,3,5815,india,keep1575,animal,AP9V6D1JRAUCP,college_bachDegree,NA,asian_southAsian,male,36,hinduism,i think that is one this an animal,Nice,39,BI2A00031,definitely yes,3,1133,india,keep1576,animal,AP9V6D1JRAUCP,college_bachDegree,NA,asian_southAsian,male,36,hinduism,i think that is one this an animal,Nice,40,BI2A00022,definitely no,-3,4415,india,keep1577,animal,AP9V6D1JRAUCP,college_bachDegree,NA,asian_southAsian,male,36,hinduism,i think that is one this an animal,Nice,41,BI2A00041,definitely no,-3,1012,india,keep1578,animal,AP9V6D1JRAUCP,college_bachDegree,NA,asian_southAsian,male,36,hinduism,i think that is one this an animal,Nice,42,BI2A00038,definitely yes,3,2476,india,keep1579,animal,AP9V6D1JRAUCP,college_bachDegree,NA,asian_southAsian,male,36,hinduism,i think that is one this an animal,Nice,43,BI2A00025,definitely no,-3,6768,india,keep1580,animal,AP9V6D1JRAUCP,college_bachDegree,NA,asian_southAsian,male,36,hinduism,i think that is one this an animal,Nice,44,BI2A00021,definitely no,-3,3447,india,keep1581,animal,AP9V6D1JRAUCP,college_bachDegree,NA,asian_southAsian,male,36,hinduism,i think that is one this an animal,Nice,45,BI2A00045,definitely no,-3,1108,india,keep1582,animal,AP9V6D1JRAUCP,college_bachDegree,NA,asian_southAsian,male,36,hinduism,i think that is one this an animal,Nice,46,BI2A00012,definitely yes,3,3628,india,keep1583,animal,AP9V6D1JRAUCP,college_bachDegree,NA,asian_southAsian,male,36,hinduism,i think that is one this an animal,Nice,47,BI2A00029,definitely yes,3,1253,india,keep1584,animal,AP9V6D1JRAUCP,college_bachDegree,NA,asian_southAsian,male,36,hinduism,i think that is one this an animal,Nice,48,BI2A00044,definitely yes,3,908,india,keep193,animal,AOSB3RSWQQENC,grad_degree,NA,asian_southAsian,female,59,hinduism,"In my opinion, the picture shows an animal.","After the user gives an answer, you can show whether it was correct or not.",1,BI2A00001,probably yes,2,8612,india,keep194,animal,AOSB3RSWQQENC,grad_degree,NA,asian_southAsian,female,59,hinduism,"In my opinion, the picture shows an animal.","After the user gives an answer, you can show whether it was correct or not.",2,BI2A00039,probably yes,2,12355,india,keep195,animal,AOSB3RSWQQENC,grad_degree,NA,asian_southAsian,female,59,hinduism,"In my opinion, the picture shows an animal.","After the user gives an answer, you can show whether it was correct or not.",3,BI2A00026,maybe no,-1,8843,india,keep196,animal,AOSB3RSWQQENC,grad_degree,NA,asian_southAsian,female,59,hinduism,"In my opinion, the picture shows an animal.","After the user gives an answer, you can show whether it was correct or not.",4,BI2A00042,maybe no,-1,3711,india,keep197,animal,AOSB3RSWQQENC,grad_degree,NA,asian_southAsian,female,59,hinduism,"In my opinion, the picture shows an animal.","After the user gives an answer, you can show whether it was correct or not.",5,BI2A00047,maybe no,-1,7608,india,keep198,animal,AOSB3RSWQQENC,grad_degree,NA,asian_southAsian,female,59,hinduism,"In my opinion, the picture shows an animal.","After the user gives an answer, you can show whether it was correct or not.",6,BI2A00008,definitely yes,3,3698,india,keep199,animal,AOSB3RSWQQENC,grad_degree,NA,asian_southAsian,female,59,hinduism,"In my opinion, the picture shows an animal.","After the user gives an answer, you can show whether it was correct or not.",7,BI2A00019,equally yes/no,0,5441,india,keep200,animal,AOSB3RSWQQENC,grad_degree,NA,asian_southAsian,female,59,hinduism,"In my opinion, the picture shows an animal.","After the user gives an answer, you can show whether it was correct or not.",8,BI2A00005,probably yes,2,2979,india,keep201,animal,AOSB3RSWQQENC,grad_degree,NA,asian_southAsian,female,59,hinduism,"In my opinion, the picture shows an animal.","After the user gives an answer, you can show whether it was correct or not.",9,BI2A00046,probably yes,2,1970,india,keep202,animal,AOSB3RSWQQENC,grad_degree,NA,asian_southAsian,female,59,hinduism,"In my opinion, the picture shows an animal.","After the user gives an answer, you can show whether it was correct or not.",10,BI2A00032,probably yes,2,3009,india,keep203,animal,AOSB3RSWQQENC,grad_degree,NA,asian_southAsian,female,59,hinduism,"In my opinion, the picture shows an animal.","After the user gives an answer, you can show whether it was correct or not.",11,BI2A00048,definitely no,-3,2676,india,keep204,animal,AOSB3RSWQQENC,grad_degree,NA,asian_southAsian,female,59,hinduism,"In my opinion, the picture shows an animal.","After the user gives an answer, you can show whether it was correct or not.",12,BI2A00033,definitely no,-3,3302,india,keep205,animal,AOSB3RSWQQENC,grad_degree,NA,asian_southAsian,female,59,hinduism,"In my opinion, the picture shows an animal.","After the user gives an answer, you can show whether it was correct or not.",13,BI2A00045,definitely no,-3,2639,india,keep206,animal,AOSB3RSWQQENC,grad_degree,NA,asian_southAsian,female,59,hinduism,"In my opinion, the picture shows an animal.","After the user gives an answer, you can show whether it was correct or not.",14,BI2A00031,definitely no,-3,2950,india,keep207,animal,AOSB3RSWQQENC,grad_degree,NA,asian_southAsian,female,59,hinduism,"In my opinion, the picture shows an animal.","After the user gives an answer, you can show whether it was correct or not.",15,BI2A00030,definitely no,-3,1957,india,keep208,animal,AOSB3RSWQQENC,grad_degree,NA,asian_southAsian,female,59,hinduism,"In my opinion, the picture shows an animal.","After the user gives an answer, you can show whether it was correct or not.",16,BI2A00007,probably yes,2,3824,india,keep209,animal,AOSB3RSWQQENC,grad_degree,NA,asian_southAsian,female,59,hinduism,"In my opinion, the picture shows an animal.","After the user gives an answer, you can show whether it was correct or not.",17,BI2A00041,definitely no,-3,3196,india,keep210,animal,AOSB3RSWQQENC,grad_degree,NA,asian_southAsian,female,59,hinduism,"In my opinion, the picture shows an animal.","After the user gives an answer, you can show whether it was correct or not.",18,BI2A00038,definitely no,-3,1628,india,keep211,animal,AOSB3RSWQQENC,grad_degree,NA,asian_southAsian,female,59,hinduism,"In my opinion, the picture shows an animal.","After the user gives an answer, you can show whether it was correct or not.",19,BI2A00012,definitely no,-3,3107,india,keep212,animal,AOSB3RSWQQENC,grad_degree,NA,asian_southAsian,female,59,hinduism,"In my opinion, the picture shows an animal.","After the user gives an answer, you can show whether it was correct or not.",20,BI2A00006,definitely yes,3,4847,india,keep213,animal,AOSB3RSWQQENC,grad_degree,NA,asian_southAsian,female,59,hinduism,"In my opinion, the picture shows an animal.","After the user gives an answer, you can show whether it was correct or not.",21,BI2A00028,probably no,-2,8583,india,keep214,animal,AOSB3RSWQQENC,grad_degree,NA,asian_southAsian,female,59,hinduism,"In my opinion, the picture shows an animal.","After the user gives an answer, you can show whether it was correct or not.",22,BI2A00037,definitely no,-3,2895,india,keep215,animal,AOSB3RSWQQENC,grad_degree,NA,asian_southAsian,female,59,hinduism,"In my opinion, the picture shows an animal.","After the user gives an answer, you can show whether it was correct or not.",23,BI2A00035,definitely no,-3,1799,india,keep216,animal,AOSB3RSWQQENC,grad_degree,NA,asian_southAsian,female,59,hinduism,"In my opinion, the picture shows an animal.","After the user gives an answer, you can show whether it was correct or not.",24,BI2A00015,maybe yes,1,4143,india,keep217,animal,AOSB3RSWQQENC,grad_degree,NA,asian_southAsian,female,59,hinduism,"In my opinion, the picture shows an animal.","After the user gives an answer, you can show whether it was correct or not.",25,BI2A00017,probably no,-2,2275,india,keep218,animal,AOSB3RSWQQENC,grad_degree,NA,asian_southAsian,female,59,hinduism,"In my opinion, the picture shows an animal.","After the user gives an answer, you can show whether it was correct or not.",26,BI2A00010,definitely no,-3,2447,india,keep219,animal,AOSB3RSWQQENC,grad_degree,NA,asian_southAsian,female,59,hinduism,"In my opinion, the picture shows an animal.","After the user gives an answer, you can show whether it was correct or not.",27,BI2A00029,definitely no,-3,3558,india,keep220,animal,AOSB3RSWQQENC,grad_degree,NA,asian_southAsian,female,59,hinduism,"In my opinion, the picture shows an animal.","After the user gives an answer, you can show whether it was correct or not.",28,BI2A00025,definitely no,-3,2038,india,keep221,animal,AOSB3RSWQQENC,grad_degree,NA,asian_southAsian,female,59,hinduism,"In my opinion, the picture shows an animal.","After the user gives an answer, you can show whether it was correct or not.",29,BI2A00023,definitely no,-3,1797,india,keep222,animal,AOSB3RSWQQENC,grad_degree,NA,asian_southAsian,female,59,hinduism,"In my opinion, the picture shows an animal.","After the user gives an answer, you can show whether it was correct or not.",30,BI2A00040,definitely no,-3,2704,india,keep223,animal,AOSB3RSWQQENC,grad_degree,NA,asian_southAsian,female,59,hinduism,"In my opinion, the picture shows an animal.","After the user gives an answer, you can show whether it was correct or not.",31,BI2A00014,probably no,-2,2987,india,keep224,animal,AOSB3RSWQQENC,grad_degree,NA,asian_southAsian,female,59,hinduism,"In my opinion, the picture shows an animal.","After the user gives an answer, you can show whether it was correct or not.",32,BI2A00003,probably yes,2,2659,india,keep225,animal,AOSB3RSWQQENC,grad_degree,NA,asian_southAsian,female,59,hinduism,"In my opinion, the picture shows an animal.","After the user gives an answer, you can show whether it was correct or not.",33,BI2A00027,definitely no,-3,4573,india,keep226,animal,AOSB3RSWQQENC,grad_degree,NA,asian_southAsian,female,59,hinduism,"In my opinion, the picture shows an animal.","After the user gives an answer, you can show whether it was correct or not.",34,BI2A00004,probably yes,2,6813,india,keep227,animal,AOSB3RSWQQENC,grad_degree,NA,asian_southAsian,female,59,hinduism,"In my opinion, the picture shows an animal.","After the user gives an answer, you can show whether it was correct or not.",35,BI2A00011,definitely yes,3,4564,india,keep228,animal,AOSB3RSWQQENC,grad_degree,NA,asian_southAsian,female,59,hinduism,"In my opinion, the picture shows an animal.","After the user gives an answer, you can show whether it was correct or not.",36,BI2A00034,probably no,-2,3443,india,keep229,animal,AOSB3RSWQQENC,grad_degree,NA,asian_southAsian,female,59,hinduism,"In my opinion, the picture shows an animal.","After the user gives an answer, you can show whether it was correct or not.",37,BI2A00013,definitely yes,3,3078,india,keep230,animal,AOSB3RSWQQENC,grad_degree,NA,asian_southAsian,female,59,hinduism,"In my opinion, the picture shows an animal.","After the user gives an answer, you can show whether it was correct or not.",38,BI2A00018,definitely no,-3,1880,india,keep231,animal,AOSB3RSWQQENC,grad_degree,NA,asian_southAsian,female,59,hinduism,"In my opinion, the picture shows an animal.","After the user gives an answer, you can show whether it was correct or not.",39,BI2A00020,maybe yes,1,3771,india,keep232,animal,AOSB3RSWQQENC,grad_degree,NA,asian_southAsian,female,59,hinduism,"In my opinion, the picture shows an animal.","After the user gives an answer, you can show whether it was correct or not.",40,BI2A00022,probably no,-2,5439,india,keep233,animal,AOSB3RSWQQENC,grad_degree,NA,asian_southAsian,female,59,hinduism,"In my opinion, the picture shows an animal.","After the user gives an answer, you can show whether it was correct or not.",41,BI2A00021,definitely no,-3,2638,india,keep234,animal,AOSB3RSWQQENC,grad_degree,NA,asian_southAsian,female,59,hinduism,"In my opinion, the picture shows an animal.","After the user gives an answer, you can show whether it was correct or not.",42,BI2A00044,definitely no,-3,1994,india,keep235,animal,AOSB3RSWQQENC,grad_degree,NA,asian_southAsian,female,59,hinduism,"In my opinion, the picture shows an animal.","After the user gives an answer, you can show whether it was correct or not.",43,BI2A00024,definitely no,-3,2651,india,keep236,animal,AOSB3RSWQQENC,grad_degree,NA,asian_southAsian,female,59,hinduism,"In my opinion, the picture shows an animal.","After the user gives an answer, you can show whether it was correct or not.",44,BI2A00036,definitely no,-3,4255,india,keep237,animal,AOSB3RSWQQENC,grad_degree,NA,asian_southAsian,female,59,hinduism,"In my opinion, the picture shows an animal.","After the user gives an answer, you can show whether it was correct or not.",45,BI2A00009,probably yes,2,2300,india,keep238,animal,AOSB3RSWQQENC,grad_degree,NA,asian_southAsian,female,59,hinduism,"In my opinion, the picture shows an animal.","After the user gives an answer, you can show whether it was correct or not.",46,BI2A00043,definitely no,-3,3457,india,keep239,animal,AOSB3RSWQQENC,grad_degree,NA,asian_southAsian,female,59,hinduism,"In my opinion, the picture shows an animal.","After the user gives an answer, you can show whether it was correct or not.",47,BI2A00002,definitely yes,3,2730,india,keep240,animal,AOSB3RSWQQENC,grad_degree,NA,asian_southAsian,female,59,hinduism,"In my opinion, the picture shows an animal.","After the user gives an answer, you can show whether it was correct or not.",48,BI2A00016,probably yes,2,2302,india,keep625,animal,ALSHA3DAWJWRO,college_bachDegree,NA,asian_southAsian,male,24,jainism,I think the picture shown is of animal,Enjoyed the study,1,BI2A00024,probably no,-2,15026,india,keep626,animal,ALSHA3DAWJWRO,college_bachDegree,NA,asian_southAsian,male,24,jainism,I think the picture shown is of animal,Enjoyed the study,2,BI2A00039,probably no,-2,12953,india,keep627,animal,ALSHA3DAWJWRO,college_bachDegree,NA,asian_southAsian,male,24,jainism,I think the picture shown is of animal,Enjoyed the study,3,BI2A00036,maybe no,-1,3142,india,keep628,animal,ALSHA3DAWJWRO,college_bachDegree,NA,asian_southAsian,male,24,jainism,I think the picture shown is of animal,Enjoyed the study,4,BI2A00043,maybe yes,1,5518,india,keep629,animal,ALSHA3DAWJWRO,college_bachDegree,NA,asian_southAsian,male,24,jainism,I think the picture shown is of animal,Enjoyed the study,5,BI2A00010,maybe yes,1,3503,india,keep630,animal,ALSHA3DAWJWRO,college_bachDegree,NA,asian_southAsian,male,24,jainism,I think the picture shown is of animal,Enjoyed the study,6,BI2A00023,probably yes,2,2784,india,keep631,animal,ALSHA3DAWJWRO,college_bachDegree,NA,asian_southAsian,male,24,jainism,I think the picture shown is of animal,Enjoyed the study,7,BI2A00016,definitely yes,3,2541,india,keep632,animal,ALSHA3DAWJWRO,college_bachDegree,NA,asian_southAsian,male,24,jainism,I think the picture shown is of animal,Enjoyed the study,8,BI2A00017,maybe no,-1,3212,india,keep633,animal,ALSHA3DAWJWRO,college_bachDegree,NA,asian_southAsian,male,24,jainism,I think the picture shown is of animal,Enjoyed the study,9,BI2A00027,maybe no,-1,2501,india,keep634,animal,ALSHA3DAWJWRO,college_bachDegree,NA,asian_southAsian,male,24,jainism,I think the picture shown is of animal,Enjoyed the study,10,BI2A00046,definitely no,-3,2495,india,keep635,animal,ALSHA3DAWJWRO,college_bachDegree,NA,asian_southAsian,male,24,jainism,I think the picture shown is of animal,Enjoyed the study,11,BI2A00035,probably no,-2,2933,india,keep