"","condition","worker_id","education","english_native","gender","age","religion","comments","trialNum","swatch","response","responseCoded","rt","country"
"1","hungry","A3DFCGAXJHV1P9","college_bachDegree","no","male",63,"hinduism","A new experience.I didn't have any cue of what to expect in the coming experiment.Any way it was interesting.Thank you.",1,"BI2A00034","maybe yes",1,20615,"india"
"2","hungry","A3DFCGAXJHV1P9","college_bachDegree","no","male",63,"hinduism","A new experience.I didn't have any cue of what to expect in the coming experiment.Any way it was interesting.Thank you.",2,"BI2A00011","probably yes",2,7362,"india"
"3","hungry","A3DFCGAXJHV1P9","college_bachDegree","no","male",63,"hinduism","A new experience.I didn't have any cue of what to expect in the coming experiment.Any way it was interesting.Thank you.",3,"BI2A00010","probably yes",2,5997,"india"
"4","hungry","A3DFCGAXJHV1P9","college_bachDegree","no","male",63,"hinduism","A new experience.I didn't have any cue of what to expect in the coming experiment.Any way it was interesting.Thank you.",4,"BI2A00009","definitely yes",3,5728,"india"
"5","hungry","A3DFCGAXJHV1P9","college_bachDegree","no","male",63,"hinduism","A new experience.I didn't have any cue of what to expect in the coming experiment.Any way it was interesting.Thank you.",5,"BI2A00029","maybe no",-1,8787,"india"
"6","hungry","A3DFCGAXJHV1P9","college_bachDegree","no","male",63,"hinduism","A new experience.I didn't have any cue of what to expect in the coming experiment.Any way it was interesting.Thank you.",6,"BI2A00046","definitely no",-3,3247,"india"
"7","hungry","A3DFCGAXJHV1P9","college_bachDegree","no","male",63,"hinduism","A new experience.I didn't have any cue of what to expect in the coming experiment.Any way it was interesting.Thank you.",7,"BI2A00038","definitely no",-3,2969,"india"
"8","hungry","A3DFCGAXJHV1P9","college_bachDegree","no","male",63,"hinduism","A new experience.I didn't have any cue of what to expect in the coming experiment.Any way it was interesting.Thank you.",8,"BI2A00039","definitely no",-3,3994,"india"
"9","hungry","A3DFCGAXJHV1P9","college_bachDegree","no","male",63,"hinduism","A new experience.I didn't have any cue of what to expect in the coming experiment.Any way it was interesting.Thank you.",9,"BI2A00048","definitely no",-3,1855,"india"
"10","hungry","A3DFCGAXJHV1P9","college_bachDegree","no","male",63,"hinduism","A new experience.I didn't have any cue of what to expect in the coming experiment.Any way it was interesting.Thank you.",10,"BI2A00012","equally yes/no",0,5466,"india"
"11","hungry","A3DFCGAXJHV1P9","college_bachDegree","no","male",63,"hinduism","A new experience.I didn't have any cue of what to expect in the coming experiment.Any way it was interesting.Thank you.",11,"BI2A00028","maybe no",-1,2783,"india"
"12","hungry","A3DFCGAXJHV1P9","college_bachDegree","no","male",63,"hinduism","A new experience.I didn't have any cue of what to expect in the coming experiment.Any way it was interesting.Thank you.",12,"BI2A00042","definitely no",-3,11346,"india"
"13","hungry","A3DFCGAXJHV1P9","college_bachDegree","no","male",63,"hinduism","A new experience.I didn't have any cue of what to expect in the coming experiment.Any way it was interesting.Thank you.",13,"BI2A00030","definitely no",-3,2154,"india"
"14","hungry","A3DFCGAXJHV1P9","college_bachDegree","no","male",63,"hinduism","A new experience.I didn't have any cue of what to expect in the coming experiment.Any way it was interesting.Thank you.",14,"BI2A00023","maybe yes",1,3787,"india"
"15","hungry","A3DFCGAXJHV1P9","college_bachDegree","no","male",63,"hinduism","A new experience.I didn't have any cue of what to expect in the coming experiment.Any way it was interesting.Thank you.",15,"BI2A00031","definitely no",-3,2844,"india"
"16","hungry","A3DFCGAXJHV1P9","college_bachDegree","no","male",63,"hinduism","A new experience.I didn't have any cue of what to expect in the coming experiment.Any way it was interesting.Thank you.",16,"BI2A00017","definitely no",-3,2319,"india"
"17","hungry","A3DFCGAXJHV1P9","college_bachDegree","no","male",63,"hinduism","A new experience.I didn't have any cue of what to expect in the coming experiment.Any way it was interesting.Thank you.",17,"BI2A00041","probably no",-2,2633,"india"
"18","hungry","A3DFCGAXJHV1P9","college_bachDegree","no","male",63,"hinduism","A new experience.I didn't have any cue of what to expect in the coming experiment.Any way it was interesting.Thank you.",18,"BI2A00014","equally yes/no",0,7375,"india"
"19","hungry","A3DFCGAXJHV1P9","college_bachDegree","no","male",63,"hinduism","A new experience.I didn't have any cue of what to expect in the coming experiment.Any way it was interesting.Thank you.",19,"BI2A00007","definitely yes",3,5318,"india"
"20","hungry","A3DFCGAXJHV1P9","college_bachDegree","no","male",63,"hinduism","A new experience.I didn't have any cue of what to expect in the coming experiment.Any way it was interesting.Thank you.",20,"BI2A00035","definitely no",-3,2499,"india"
"21","hungry","A3DFCGAXJHV1P9","college_bachDegree","no","male",63,"hinduism","A new experience.I didn't have any cue of what to expect in the coming experiment.Any way it was interesting.Thank you.",21,"BI2A00025","equally yes/no",0,4167,"india"
"22","hungry","A3DFCGAXJHV1P9","college_bachDegree","no","male",63,"hinduism","A new experience.I didn't have any cue of what to expect in the coming experiment.Any way it was interesting.Thank you.",22,"BI2A00027","maybe no",-1,3964,"india"
"23","hungry","A3DFCGAXJHV1P9","college_bachDegree","no","male",63,"hinduism","A new experience.I didn't have any cue of what to expect in the coming experiment.Any way it was interesting.Thank you.",23,"BI2A00003","probably yes",2,2351,"india"
"24","hungry","A3DFCGAXJHV1P9","college_bachDegree","no","male",63,"hinduism","A new experience.I didn't have any cue of what to expect in the coming experiment.Any way it was interesting.Thank you.",24,"BI2A00021","probably no",-2,2397,"india"
"25","hungry","A3DFCGAXJHV1P9","college_bachDegree","no","male",63,"hinduism","A new experience.I didn't have any cue of what to expect in the coming experiment.Any way it was interesting.Thank you.",25,"BI2A00002","definitely yes",3,1837,"india"
"26","hungry","A3DFCGAXJHV1P9","college_bachDegree","no","male",63,"hinduism","A new experience.I didn't have any cue of what to expect in the coming experiment.Any way it was interesting.Thank you.",26,"BI2A00018","definitely no",-3,2351,"india"
"27","hungry","A3DFCGAXJHV1P9","college_bachDegree","no","male",63,"hinduism","A new experience.I didn't have any cue of what to expect in the coming experiment.Any way it was interesting.Thank you.",27,"BI2A00045","definitely no",-3,1579,"india"
"28","hungry","A3DFCGAXJHV1P9","college_bachDegree","no","male",63,"hinduism","A new experience.I didn't have any cue of what to expect in the coming experiment.Any way it was interesting.Thank you.",28,"BI2A00004","probably yes",2,2550,"india"
"29","hungry","A3DFCGAXJHV1P9","college_bachDegree","no","male",63,"hinduism","A new experience.I didn't have any cue of what to expect in the coming experiment.Any way it was interesting.Thank you.",29,"BI2A00005","definitely yes",3,1820,"india"
"30","hungry","A3DFCGAXJHV1P9","college_bachDegree","no","male",63,"hinduism","A new experience.I didn't have any cue of what to expect in the coming experiment.Any way it was interesting.Thank you.",30,"BI2A00008","definitely yes",3,1996,"india"
"31","hungry","A3DFCGAXJHV1P9","college_bachDegree","no","male",63,"hinduism","A new experience.I didn't have any cue of what to expect in the coming experiment.Any way it was interesting.Thank you.",31,"BI2A00032","probably no",-2,2285,"india"
"32","hungry","A3DFCGAXJHV1P9","college_bachDegree","no","male",63,"hinduism","A new experience.I didn't have any cue of what to expect in the coming experiment.Any way it was interesting.Thank you.",32,"BI2A00013","probably yes",2,1699,"india"
"33","hungry","A3DFCGAXJHV1P9","college_bachDegree","no","male",63,"hinduism","A new experience.I didn't have any cue of what to expect in the coming experiment.Any way it was interesting.Thank you.",33,"BI2A00040","definitely no",-3,1616,"india"
"34","hungry","A3DFCGAXJHV1P9","college_bachDegree","no","male",63,"hinduism","A new experience.I didn't have any cue of what to expect in the coming experiment.Any way it was interesting.Thank you.",34,"BI2A00024","definitely yes",3,3388,"india"
"35","hungry","A3DFCGAXJHV1P9","college_bachDegree","no","male",63,"hinduism","A new experience.I didn't have any cue of what to expect in the coming experiment.Any way it was interesting.Thank you.",35,"BI2A00047","equally yes/no",0,3795,"india"
"36","hungry","A3DFCGAXJHV1P9","college_bachDegree","no","male",63,"hinduism","A new experience.I didn't have any cue of what to expect in the coming experiment.Any way it was interesting.Thank you.",36,"BI2A00019","maybe yes",1,1952,"india"
"37","hungry","A3DFCGAXJHV1P9","college_bachDegree","no","male",63,"hinduism","A new experience.I didn't have any cue of what to expect in the coming experiment.Any way it was interesting.Thank you.",37,"BI2A00022","probably no",-2,2051,"india"
"38","hungry","A3DFCGAXJHV1P9","college_bachDegree","no","male",63,"hinduism","A new experience.I didn't have any cue of what to expect in the coming experiment.Any way it was interesting.Thank you.",38,"BI2A00043","probably no",-2,3400,"india"
"39","hungry","A3DFCGAXJHV1P9","college_bachDegree","no","male",63,"hinduism","A new experience.I didn't have any cue of what to expect in the coming experiment.Any way it was interesting.Thank you.",39,"BI2A00020","equally yes/no",0,2303,"india"
"40","hungry","A3DFCGAXJHV1P9","college_bachDegree","no","male",63,"hinduism","A new experience.I didn't have any cue of what to expect in the coming experiment.Any way it was interesting.Thank you.",40,"BI2A00037","probably no",-2,3011,"india"
"41","hungry","A3DFCGAXJHV1P9","college_bachDegree","no","male",63,"hinduism","A new experience.I didn't have any cue of what to expect in the coming experiment.Any way it was interesting.Thank you.",41,"BI2A00016","equally yes/no",0,3005,"india"
"42","hungry","A3DFCGAXJHV1P9","college_bachDegree","no","male",63,"hinduism","A new experience.I didn't have any cue of what to expect in the coming experiment.Any way it was interesting.Thank you.",42,"BI2A00044","definitely no",-3,1881,"india"
"43","hungry","A3DFCGAXJHV1P9","college_bachDegree","no","male",63,"hinduism","A new experience.I didn't have any cue of what to expect in the coming experiment.Any way it was interesting.Thank you.",43,"BI2A00006","definitely yes",3,3166,"india"
"44","hungry","A3DFCGAXJHV1P9","college_bachDegree","no","male",63,"hinduism","A new experience.I didn't have any cue of what to expect in the coming experiment.Any way it was interesting.Thank you.",44,"BI2A00026","probably yes",2,3117,"india"
"45","hungry","A3DFCGAXJHV1P9","college_bachDegree","no","male",63,"hinduism","A new experience.I didn't have any cue of what to expect in the coming experiment.Any way it was interesting.Thank you.",45,"BI2A00015","definitely yes",3,2150,"india"
"46","hungry","A3DFCGAXJHV1P9","college_bachDegree","no","male",63,"hinduism","A new experience.I didn't have any cue of what to expect in the coming experiment.Any way it was interesting.Thank you.",46,"BI2A00036","maybe no",-1,3434,"india"
"47","hungry","A3DFCGAXJHV1P9","college_bachDegree","no","male",63,"hinduism","A new experience.I didn't have any cue of what to expect in the coming experiment.Any way it was interesting.Thank you.",47,"BI2A00033","maybe no",-1,5381,"india"
"48","hungry","A3DFCGAXJHV1P9","college_bachDegree","no","male",63,"hinduism","A new experience.I didn't have any cue of what to expect in the coming experiment.Any way it was interesting.Thank you.",48,"BI2A00001","probably yes",2,2634,"india"
"49","happy","A1CNEUGI7LWLR7","college_bachDegree","no","male",26,"hinduism","no",1,"BI2A00033","probably no",-2,9899,"india"
"50","happy","A1CNEUGI7LWLR7","college_bachDegree","no","male",26,"hinduism","no",2,"BI2A00041","probably no",-2,2179,"india"
"51","happy","A1CNEUGI7LWLR7","college_bachDegree","no","male",26,"hinduism","no",3,"BI2A00015","definitely no",-3,1428,"india"
"52","happy","A1CNEUGI7LWLR7","college_bachDegree","no","male",26,"hinduism","no",4,"BI2A00008","definitely no",-3,1392,"india"
"53","happy","A1CNEUGI7LWLR7","college_bachDegree","no","male",26,"hinduism","no",5,"BI2A00016","equally yes/no",0,2480,"india"
"54","happy","A1CNEUGI7LWLR7","college_bachDegree","no","male",26,"hinduism","no",6,"BI2A00031","maybe yes",1,1666,"india"
"55","happy","A1CNEUGI7LWLR7","college_bachDegree","no","male",26,"hinduism","no",7,"BI2A00003","probably no",-2,1743,"india"
"56","happy","A1CNEUGI7LWLR7","college_bachDegree","no","male",26,"hinduism","no",8,"BI2A00005","definitely no",-3,1074,"india"
"57","happy","A1CNEUGI7LWLR7","college_bachDegree","no","male",26,"hinduism","no",9,"BI2A00038","equally yes/no",0,2209,"india"
"58","happy","A1CNEUGI7LWLR7","college_bachDegree","no","male",26,"hinduism","no",10,"BI2A00046","probably yes",2,2561,"india"
"59","happy","A1CNEUGI7LWLR7","college_bachDegree","no","male",26,"hinduism","no",11,"BI2A00001","probably no",-2,1479,"india"
"60","happy","A1CNEUGI7LWLR7","college_bachDegree","no","male",26,"hinduism","no",12,"BI2A00011","maybe yes",1,1962,"india"
"61","happy","A1CNEUGI7LWLR7","college_bachDegree","no","male",26,"hinduism","no",13,"BI2A00044","maybe yes",1,1484,"india"
"62","happy","A1CNEUGI7LWLR7","college_bachDegree","no","male",26,"hinduism","no",14,"BI2A00032","equally yes/no",0,1784,"india"
"63","happy","A1CNEUGI7LWLR7","college_bachDegree","no","male",26,"hinduism","no",15,"BI2A00030","probably yes",2,1569,"india"
"64","happy","A1CNEUGI7LWLR7","college_bachDegree","no","male",26,"hinduism","no",16,"BI2A00043","definitely yes",3,1238,"india"
"65","happy","A1CNEUGI7LWLR7","college_bachDegree","no","male",26,"hinduism","no",17,"BI2A00047","probably yes",2,2201,"india"
"66","happy","A1CNEUGI7LWLR7","college_bachDegree","no","male",26,"hinduism","no",18,"BI2A00020","probably no",-2,1577,"india"
"67","happy","A1CNEUGI7LWLR7","college_bachDegree","no","male",26,"hinduism","no",19,"BI2A00024","equally yes/no",0,2801,"india"
"68","happy","A1CNEUGI7LWLR7","college_bachDegree","no","male",26,"hinduism","no",20,"BI2A00035","maybe yes",1,1227,"india"
"69","happy","A1CNEUGI7LWLR7","college_bachDegree","no","male",26,"hinduism","no",21,"BI2A00007","maybe yes",1,1228,"india"
"70","happy","A1CNEUGI7LWLR7","college_bachDegree","no","male",26,"hinduism","no",22,"BI2A00037","maybe no",-1,1402,"india"
"71","happy","A1CNEUGI7LWLR7","college_bachDegree","no","male",26,"hinduism","no",23,"BI2A00036","probably no",-2,1410,"india"
"72","happy","A1CNEUGI7LWLR7","college_bachDegree","no","male",26,"hinduism","no",24,"BI2A00019","probably no",-2,1088,"india"
"73","happy","A1CNEUGI7LWLR7","college_bachDegree","no","male",26,"hinduism","no",25,"BI2A00029","probably no",-2,1469,"india"
"74","happy","A1CNEUGI7LWLR7","college_bachDegree","no","male",26,"hinduism","no",26,"BI2A00028","equally yes/no",0,1994,"india"
"75","happy","A1CNEUGI7LWLR7","college_bachDegree","no","male",26,"hinduism","no",27,"BI2A00027","maybe yes",1,1530,"india"
"76","happy","A1CNEUGI7LWLR7","college_bachDegree","no","male",26,"hinduism","no",28,"BI2A00039","probably yes",2,1443,"india"
"77","happy","A1CNEUGI7LWLR7","college_bachDegree","no","male",26,"hinduism","no",29,"BI2A00042","probably yes",2,1720,"india"
"78","happy","A1CNEUGI7LWLR7","college_bachDegree","no","male",26,"hinduism","no",30,"BI2A00048","probably yes",2,1403,"india"
"79","happy","A1CNEUGI7LWLR7","college_bachDegree","no","male",26,"hinduism","no",31,"BI2A00002","definitely no",-3,2108,"india"
"80","happy","A1CNEUGI7LWLR7","college_bachDegree","no","male",26,"hinduism","no",32,"BI2A00025","definitely no",-3,1398,"india"
"81","happy","A1CNEUGI7LWLR7","college_bachDegree","no","male",26,"hinduism","no",33,"BI2A00009","probably yes",2,1760,"india"
"82","happy","A1CNEUGI7LWLR7","college_bachDegree","no","male",26,"hinduism","no",34,"BI2A00012","probably no",-2,1857,"india"
"83","happy","A1CNEUGI7LWLR7","college_bachDegree","no","male",26,"hinduism","no",35,"BI2A00026","definitely no",-3,1545,"india"
"84","happy","A1CNEUGI7LWLR7","college_bachDegree","no","male",26,"hinduism","no",36,"BI2A00022","equally yes/no",0,1696,"india"
"85","happy","A1CNEUGI7LWLR7","college_bachDegree","no","male",26,"hinduism","no",37,"BI2A00017","equally yes/no",0,1121,"india"
"86","happy","A1CNEUGI7LWLR7","college_bachDegree","no","male",26,"hinduism","no",38,"BI2A00006","probably yes",2,2577,"india"
"87","happy","A1CNEUGI7LWLR7","college_bachDegree","no","male",26,"hinduism","no",39,"BI2A00013","maybe no",-1,2736,"india"
"88","happy","A1CNEUGI7LWLR7","college_bachDegree","no","male",26,"hinduism","no",40,"BI2A00004","probably no",-2,1570,"india"
"89","happy","A1CNEUGI7LWLR7","college_bachDegree","no","male",26,"hinduism","no",41,"BI2A00040","maybe yes",1,1992,"india"
"90","happy","A1CNEUGI7LWLR7","college_bachDegree","no","male",26,"hinduism","no",42,"BI2A00021","maybe yes",1,1641,"india"
"91","happy","A1CNEUGI7LWLR7","college_bachDegree","no","male",26,"hinduism","no",43,"BI2A00010","maybe no",-1,1700,"india"
"92","happy","A1CNEUGI7LWLR7","college_bachDegree","no","male",26,"hinduism","no",44,"BI2A00045","probably yes",2,1390,"india"
"93","happy","A1CNEUGI7LWLR7","college_bachDegree","no","male",26,"hinduism","no",45,"BI2A00034","equally yes/no",0,2490,"india"
"94","happy","A1CNEUGI7LWLR7","college_bachDegree","no","male",26,"hinduism","no",46,"BI2A00018","equally yes/no",0,1450,"india"
"95","happy","A1CNEUGI7LWLR7","college_bachDegree","no","male",26,"hinduism","no",47,"BI2A00023","probably no",-2,1646,"india"
"96","happy","A1CNEUGI7LWLR7","college_bachDegree","no","male",26,"hinduism","no",48,"BI2A00014","maybe no",-1,1593,"india"
"97","feelings","A1JF9ZNXWK5QZU","college_bachDegree","no","female",31,"hinduism","Actually I like your work. I so glad to work with you. Keep it up. Lord bless you.",1,"BI2A00008","equally yes/no",0,15001,"india"
"98","feelings","A1JF9ZNXWK5QZU","college_bachDegree","no","female",31,"hinduism","Actually I like your work. I so glad to work with you. Keep it up. Lord bless you.",2,"BI2A00014","maybe yes",1,8912,"india"
"99","feelings","A1JF9ZNXWK5QZU","college_bachDegree","no","female",31,"hinduism","Actually I like your work. I so glad to work with you. Keep it up. Lord bless you.",3,"BI2A00003","probably yes",2,4376,"india"
"100","feelings","A1JF9ZNXWK5QZU","college_bachDegree","no","female",31,"hinduism","Actually I like your work. I so glad to work with you. Keep it up. Lord bless you.",4,"BI2A00004","definitely yes",3,1922,"india"
"101","feelings","A1JF9ZNXWK5QZU","college_bachDegree","no","female",31,"hinduism","Actually I like your work. I so glad to work with you. Keep it up. Lord bless you.",5,"BI2A00025","definitely yes",3,3046,"india"
"102","feelings","A1JF9ZNXWK5QZU","college_bachDegree","no","female",31,"hinduism","Actually I like your work. I so glad to work with you. Keep it up. Lord bless you.",6,"BI2A00027","maybe no",-1,2114,"india"
"103","feelings","A1JF9ZNXWK5QZU","college_bachDegree","no","female",31,"hinduism","Actually I like your work. I so glad to work with you. Keep it up. Lord bless you.",7,"BI2A00046","equally yes/no",0,6183,"india"
"104","feelings","A1JF9ZNXWK5QZU","college_bachDegree","no","female",31,"hinduism","Actually I like your work. I so glad to work with you. Keep it up. Lord bless you.",8,"BI2A00001","definitely yes",3,2592,"india"
"105","feelings","A1JF9ZNXWK5QZU","college_bachDegree","no","female",31,"hinduism","Actually I like your work. I so glad to work with you. Keep it up. Lord bless you.",9,"BI2A00020","definitely yes",3,1100,"india"
"106","feelings","A1JF9ZNXWK5QZU","college_bachDegree","no","female",31,"hinduism","Actually I like your work. I so glad to work with you. Keep it up. Lord bless you.",10,"BI2A00037","maybe no",-1,3734,"india"
"107","feelings","A1JF9ZNXWK5QZU","college_bachDegree","no","female",31,"hinduism","Actually I like your work. I so glad to work with you. Keep it up. Lord bless you.",11,"BI2A00024","definitely no",-3,6924,"india"
"108","feelings","A1JF9ZNXWK5QZU","college_bachDegree","no","female",31,"hinduism","Actually I like your work. I so glad to work with you. Keep it up. Lord bless you.",12,"BI2A00007","definitely yes",3,2957,"india"
"109","feelings","A1JF9ZNXWK5QZU","college_bachDegree","no","female",31,"hinduism","Actually I like your work. I so glad to work with you. Keep it up. Lord bless you.",13,"BI2A00010","equally yes/no",0,2642,"india"
"110","feelings","A1JF9ZNXWK5QZU","college_bachDegree","no","female",31,"hinduism","Actually I like your work. I so glad to work with you. Keep it up. Lord bless you.",14,"BI2A00011","equally yes/no",0,4307,"india"
"111","feelings","A1JF9ZNXWK5QZU","college_bachDegree","no","female",31,"hinduism","Actually I like your work. I so glad to work with you. Keep it up. Lord bless you.",15,"BI2A00019","maybe yes",1,2817,"india"
"112","feelings","A1JF9ZNXWK5QZU","college_bachDegree","no","female",31,"hinduism","Actually I like your work. I so glad to work with you. Keep it up. Lord bless you.",16,"BI2A00022","probably no",-2,4117,"india"
"113","feelings","A1JF9ZNXWK5QZU","college_bachDegree","no","female",31,"hinduism","Actually I like your work. I so glad to work with you. Keep it up. Lord bless you.",17,"BI2A00044","probably no",-2,2475,"india"
"114","feelings","A1JF9ZNXWK5QZU","college_bachDegree","no","female",31,"hinduism","Actually I like your work. I so glad to work with you. Keep it up. Lord bless you.",18,"BI2A00009","definitely yes",3,2879,"india"
"115","feelings","A1JF9ZNXWK5QZU","college_bachDegree","no","female",31,"hinduism","Actually I like your work. I so glad to work with you. Keep it up. Lord bless you.",19,"BI2A00012","maybe yes",1,2196,"india"
"116","feelings","A1JF9ZNXWK5QZU","college_bachDegree","no","female",31,"hinduism","Actually I like your work. I so glad to work with you. Keep it up. Lord bless you.",20,"BI2A00026","maybe yes",1,1290,"india"
"117","feelings","A1JF9ZNXWK5QZU","college_bachDegree","no","female",31,"hinduism","Actually I like your work. I so glad to work with you. Keep it up. Lord bless you.",21,"BI2A00023","maybe yes",1,2885,"india"
"118","feelings","A1JF9ZNXWK5QZU","college_bachDegree","no","female",31,"hinduism","Actually I like your work. I so glad to work with you. Keep it up. Lord bless you.",22,"BI2A00032","maybe no",-1,2772,"india"
"119","feelings","A1JF9ZNXWK5QZU","college_bachDegree","no","female",31,"hinduism","Actually I like your work. I so glad to work with you. Keep it up. Lord bless you.",23,"BI2A00043","equally yes/no",0,2251,"india"
"120","feelings","A1JF9ZNXWK5QZU","college_bachDegree","no","female",31,"hinduism","Actually I like your work. I so glad to work with you. Keep it up. Lord bless you.",24,"BI2A00015","probably yes",2,2981,"india"
"121","feelings","A1JF9ZNXWK5QZU","college_bachDegree","no","female",31,"hinduism","Actually I like your work. I so glad to work with you. Keep it up. Lord bless you.",25,"BI2A00040","maybe yes",1,1629,"india"
"122","feelings","A1JF9ZNXWK5QZU","college_bachDegree","no","female",31,"hinduism","Actually I like your work. I so glad to work with you. Keep it up. Lord bless you.",26,"BI2A00047","probably yes",2,1319,"india"
"123","feelings","A1JF9ZNXWK5QZU","college_bachDegree","no","female",31,"hinduism","Actually I like your work. I so glad to work with you. Keep it up. Lord bless you.",27,"BI2A00017","equally yes/no",0,4380,"india"
"124","feelings","A1JF9ZNXWK5QZU","college_bachDegree","no","female",31,"hinduism","Actually I like your work. I so glad to work with you. Keep it up. Lord bless you.",28,"BI2A00038","equally yes/no",0,3558,"india"
"125","feelings","A1JF9ZNXWK5QZU","college_bachDegree","no","female",31,"hinduism","Actually I like your work. I so glad to work with you. Keep it up. Lord bless you.",29,"BI2A00045","probably no",-2,6678,"india"
"126","feelings","A1JF9ZNXWK5QZU","college_bachDegree","no","female",31,"hinduism","Actually I like your work. I so glad to work with you. Keep it up. Lord bless you.",30,"BI2A00036","equally yes/no",0,2029,"india"
"127","feelings","A1JF9ZNXWK5QZU","college_bachDegree","no","female",31,"hinduism","Actually I like your work. I so glad to work with you. Keep it up. Lord bless you.",31,"BI2A00021","equally yes/no",0,1740,"india"
"128","feelings","A1JF9ZNXWK5QZU","college_bachDegree","no","female",31,"hinduism","Actually I like your work. I so glad to work with you. Keep it up. Lord bless you.",32,"BI2A00033","maybe no",-1,2559,"india"
"129","feelings","A1JF9ZNXWK5QZU","college_bachDegree","no","female",31,"hinduism","Actually I like your work. I so glad to work with you. Keep it up. Lord bless you.",33,"BI2A00016","definitely yes",3,1841,"india"
"130","feelings","A1JF9ZNXWK5QZU","college_bachDegree","no","female",31,"hinduism","Actually I like your work. I so glad to work with you. Keep it up. Lord bless you.",34,"BI2A00006","definitely yes",3,1632,"india"
"131","feelings","A1JF9ZNXWK5QZU","college_bachDegree","no","female",31,"hinduism","Actually I like your work. I so glad to work with you. Keep it up. Lord bless you.",35,"BI2A00018","equally yes/no",0,3298,"india"
"132","feelings","A1JF9ZNXWK5QZU","college_bachDegree","no","female",31,"hinduism","Actually I like your work. I so glad to work with you. Keep it up. Lord bless you.",36,"BI2A00029","definitely yes",3,1562,"india"
"133","feelings","A1JF9ZNXWK5QZU","college_bachDegree","no","female",31,"hinduism","Actually I like your work. I so glad to work with you. Keep it up. Lord bless you.",37,"BI2A00031","definitely yes",3,1158,"india"
"134","feelings","A1JF9ZNXWK5QZU","college_bachDegree","no","female",31,"hinduism","Actually I like your work. I so glad to work with you. Keep it up. Lord bless you.",38,"BI2A00002","definitely yes",3,4869,"india"
"135","feelings","A1JF9ZNXWK5QZU","college_bachDegree","no","female",31,"hinduism","Actually I like your work. I so glad to work with you. Keep it up. Lord bless you.",39,"BI2A00039","definitely no",-3,1992,"india"
"136","feelings","A1JF9ZNXWK5QZU","college_bachDegree","no","female",31,"hinduism","Actually I like your work. I so glad to work with you. Keep it up. Lord bless you.",40,"BI2A00013","definitely yes",3,1928,"india"
"137","feelings","A1JF9ZNXWK5QZU","college_bachDegree","no","female",31,"hinduism","Actually I like your work. I so glad to work with you. Keep it up. Lord bless you.",41,"BI2A00028","equally yes/no",0,2117,"india"
"138","feelings","A1JF9ZNXWK5QZU","college_bachDegree","no","female",31,"hinduism","Actually I like your work. I so glad to work with you. Keep it up. Lord bless you.",42,"BI2A00005","probably yes",2,1605,"india"
"139","feelings","A1JF9ZNXWK5QZU","college_bachDegree","no","female",31,"hinduism","Actually I like your work. I so glad to work with you. Keep it up. Lord bless you.",43,"BI2A00041","equally yes/no",0,2667,"india"
"140","feelings","A1JF9ZNXWK5QZU","college_bachDegree","no","female",31,"hinduism","Actually I like your work. I so glad to work with you. Keep it up. Lord bless you.",44,"BI2A00035","equally yes/no",0,2825,"india"
"141","feelings","A1JF9ZNXWK5QZU","college_bachDegree","no","female",31,"hinduism","Actually I like your work. I so glad to work with you. Keep it up. Lord bless you.",45,"BI2A00042","definitely no",-3,2992,"india"
"142","feelings","A1JF9ZNXWK5QZU","college_bachDegree","no","female",31,"hinduism","Actually I like your work. I so glad to work with you. Keep it up. Lord bless you.",46,"BI2A00030","maybe no",-1,3501,"india"
"143","feelings","A1JF9ZNXWK5QZU","college_bachDegree","no","female",31,"hinduism","Actually I like your work. I so glad to work with you. Keep it up. Lord bless you.",47,"BI2A00048","equally yes/no",0,1500,"india"
"144","feelings","A1JF9ZNXWK5QZU","college_bachDegree","no","female",31,"hinduism","Actually I like your work. I so glad to work with you. Keep it up. Lord bless you.",48,"BI2A00034","maybe no",-1,3559,"india"
"145","animal","ASROVV61167I6","grad_degree","yes_multiple","female",27,"hinduism","Very easy and interesting task.",1,"BI2A00014","maybe yes",1,15739,"india"
"146","animal","ASROVV61167I6","grad_degree","yes_multiple","female",27,"hinduism","Very easy and interesting task.",2,"BI2A00009","definitely yes",3,3845,"india"
"147","animal","ASROVV61167I6","grad_degree","yes_multiple","female",27,"hinduism","Very easy and interesting task.",3,"BI2A00048","definitely no",-3,3380,"india"
"148","animal","ASROVV61167I6","grad_degree","yes_multiple","female",27,"hinduism","Very easy and interesting task.",4,"BI2A00013","maybe yes",1,5819,"india"
"149","animal","ASROVV61167I6","grad_degree","yes_multiple","female",27,"hinduism","Very easy and interesting task.",5,"BI2A00033","definitely no",-3,2829,"india"
"150","animal","ASROVV61167I6","grad_degree","yes_multiple","female",27,"hinduism","Very easy and interesting task.",6,"BI2A00043","definitely no",-3,1852,"india"
"151","animal","ASROVV61167I6","grad_degree","yes_multiple","female",27,"hinduism","Very easy and interesting task.",7,"BI2A00030","definitely no",-3,2520,"india"
"152","animal","ASROVV61167I6","grad_degree","yes_multiple","female",27,"hinduism","Very easy and interesting task.",8,"BI2A00027","definitely no",-3,2226,"india"
"153","animal","ASROVV61167I6","grad_degree","yes_multiple","female",27,"hinduism","Very easy and interesting task.",9,"BI2A00040","definitely no",-3,1619,"india"
"154","animal","ASROVV61167I6","grad_degree","yes_multiple","female",27,"hinduism","Very easy and interesting task.",10,"BI2A00011","definitely yes",3,2436,"india"
"155","animal","ASROVV61167I6","grad_degree","yes_multiple","female",27,"hinduism","Very easy and interesting task.",11,"BI2A00025","definitely no",-3,3129,"india"
"156","animal","ASROVV61167I6","grad_degree","yes_multiple","female",27,"hinduism","Very easy and interesting task.",12,"BI2A00005","definitely yes",3,2757,"india"
"157","animal","ASROVV61167I6","grad_degree","yes_multiple","female",27,"hinduism","Very easy and interesting task.",13,"BI2A00037","definitely no",-3,2976,"india"
"158","animal","ASROVV61167I6","grad_degree","yes_multiple","female",27,"hinduism","Very easy and interesting task.",14,"BI2A00022","maybe yes",1,3459,"india"
"159","animal","ASROVV61167I6","grad_degree","yes_multiple","female",27,"hinduism","Very easy and interesting task.",15,"BI2A00042","definitely no",-3,2834,"india"
"160","animal","ASROVV61167I6","grad_degree","yes_multiple","female",27,"hinduism","Very easy and interesting task.",16,"BI2A00015","maybe yes",1,2209,"india"
"161","animal","ASROVV61167I6","grad_degree","yes_multiple","female",27,"hinduism","Very easy and interesting task.",17,"BI2A00018","definitely no",-3,2288,"india"
"162","animal","ASROVV61167I6","grad_degree","yes_multiple","female",27,"hinduism","Very easy and interesting task.",18,"BI2A00017","definitely no",-3,2089,"india"
"163","animal","ASROVV61167I6","grad_degree","yes_multiple","female",27,"hinduism","Very easy and interesting task.",19,"BI2A00004","definitely yes",3,3220,"india"
"164","animal","ASROVV61167I6","grad_degree","yes_multiple","female",27,"hinduism","Very easy and interesting task.",20,"BI2A00019","equally yes/no",0,6556,"india"
"165","animal","ASROVV61167I6","grad_degree","yes_multiple","female",27,"hinduism","Very easy and interesting task.",21,"BI2A00034","definitely no",-3,2314,"india"
"166","animal","ASROVV61167I6","grad_degree","yes_multiple","female",27,"hinduism","Very easy and interesting task.",22,"BI2A00044","definitely no",-3,1187,"india"
"167","animal","ASROVV61167I6","grad_degree","yes_multiple","female",27,"hinduism","Very easy and interesting task.",23,"BI2A00002","maybe yes",1,2973,"india"
"168","animal","ASROVV61167I6","grad_degree","yes_multiple","female",27,"hinduism","Very easy and interesting task.",24,"BI2A00024","maybe yes",1,4006,"india"
"169","animal","ASROVV61167I6","grad_degree","yes_multiple","female",27,"hinduism","Very easy and interesting task.",25,"BI2A00035","definitely no",-3,2044,"india"
"170","animal","ASROVV61167I6","grad_degree","yes_multiple","female",27,"hinduism","Very easy and interesting task.",26,"BI2A00006","definitely yes",3,2074,"india"
"171","animal","ASROVV61167I6","grad_degree","yes_multiple","female",27,"hinduism","Very easy and interesting task.",27,"BI2A00039","definitely no",-3,1908,"india"
"172","animal","ASROVV61167I6","grad_degree","yes_multiple","female",27,"hinduism","Very easy and interesting task.",28,"BI2A00026","maybe yes",1,4198,"india"
"173","animal","ASROVV61167I6","grad_degree","yes_multiple","female",27,"hinduism","Very easy and interesting task.",29,"BI2A00020","probably yes",2,3000,"india"
"174","animal","ASROVV61167I6","grad_degree","yes_multiple","female",27,"hinduism","Very easy and interesting task.",30,"BI2A00046","definitely no",-3,1629,"india"
"175","animal","ASROVV61167I6","grad_degree","yes_multiple","female",27,"hinduism","Very easy and interesting task.",31,"BI2A00029","definitely no",-3,1509,"india"
"176","animal","ASROVV61167I6","grad_degree","yes_multiple","female",27,"hinduism","Very easy and interesting task.",32,"BI2A00047","definitely no",-3,1173,"india"
"177","animal","ASROVV61167I6","grad_degree","yes_multiple","female",27,"hinduism","Very easy and interesting task.",33,"BI2A00045","definitely no",-3,901,"india"
"178","animal","ASROVV61167I6","grad_degree","yes_multiple","female",27,"hinduism","Very easy and interesting task.",34,"BI2A00012","definitely no",-3,2900,"india"
"179","animal","ASROVV61167I6","grad_degree","yes_multiple","female",27,"hinduism","Very easy and interesting task.",35,"BI2A00036","definitely no",-3,1085,"india"
"180","animal","ASROVV61167I6","grad_degree","yes_multiple","female",27,"hinduism","Very easy and interesting task.",36,"BI2A00010","maybe yes",1,3150,"india"
"181","animal","ASROVV61167I6","grad_degree","yes_multiple","female",27,"hinduism","Very easy and interesting task.",37,"BI2A00023","definitely no",-3,2781,"india"
"182","animal","ASROVV61167I6","grad_degree","yes_multiple","female",27,"hinduism","Very easy and interesting task.",38,"BI2A00038","definitely no",-3,1549,"india"
"183","animal","ASROVV61167I6","grad_degree","yes_multiple","female",27,"hinduism","Very easy and interesting task.",39,"BI2A00031","definitely no",-3,821,"india"
"184","animal","ASROVV61167I6","grad_degree","yes_multiple","female",27,"hinduism","Very easy and interesting task.",40,"BI2A00041","definitely no",-3,1933,"india"
"185","animal","ASROVV61167I6","grad_degree","yes_multiple","female",27,"hinduism","Very easy and interesting task.",41,"BI2A00003","definitely yes",3,2725,"india"
"186","animal","ASROVV61167I6","grad_degree","yes_multiple","female",27,"hinduism","Very easy and interesting task.",42,"BI2A00032","definitely no",-3,1693,"india"
"187","animal","ASROVV61167I6","grad_degree","yes_multiple","female",27,"hinduism","Very easy and interesting task.",43,"BI2A00028","definitely no",-3,7782,"india"
"188","animal","ASROVV61167I6","grad_degree","yes_multiple","female",27,"hinduism","Very easy and interesting task.",44,"BI2A00008","probably yes",2,2020,"india"
"189","animal","ASROVV61167I6","grad_degree","yes_multiple","female",27,"hinduism","Very easy and interesting task.",45,"BI2A00016","definitely no",-3,2972,"india"
"190","animal","ASROVV61167I6","grad_degree","yes_multiple","female",27,"hinduism","Very easy and interesting task.",46,"BI2A00001","maybe yes",1,1837,"india"
"191","animal","ASROVV61167I6","grad_degree","yes_multiple","female",27,"hinduism","Very easy and interesting task.",47,"BI2A00021","definitely no",-3,1862,"india"
"192","animal","ASROVV61167I6","grad_degree","yes_multiple","female",27,"hinduism","Very easy and interesting task.",48,"BI2A00007","definitely yes",3,1892,"india"
"193","sense","AJZBAP861F6X1","college_bachDegree","no","male",38,"hinduism","give more surveys",1,"BI2A00034","maybe yes",1,14598,"india"
"194","sense","AJZBAP861F6X1","college_bachDegree","no","male",38,"hinduism","give more surveys",2,"BI2A00047","probably yes",2,4500,"india"
"195","sense","AJZBAP861F6X1","college_bachDegree","no","male",38,"hinduism","give more surveys",3,"BI2A00024","probably yes",2,3805,"india"
"196","sense","AJZBAP861F6X1","college_bachDegree","no","male",38,"hinduism","give more surveys",4,"BI2A00040","probably yes",2,6158,"india"
"197","sense","AJZBAP861F6X1","college_bachDegree","no","male",38,"hinduism","give more surveys",5,"BI2A00019","probably yes",2,4389,"india"
"198","sense","AJZBAP861F6X1","college_bachDegree","no","male",38,"hinduism","give more surveys",6,"BI2A00042","maybe no",-1,4388,"india"
"199","sense","AJZBAP861F6X1","college_bachDegree","no","male",38,"hinduism","give more surveys",7,"BI2A00041","probably yes",2,2166,"india"
"200","sense","AJZBAP861F6X1","college_bachDegree","no","male",38,"hinduism","give more surveys",8,"BI2A00037","probably yes",2,1811,"india"
"201","sense","AJZBAP861F6X1","college_bachDegree","no","male",38,"hinduism","give more surveys",9,"BI2A00003","probably yes",2,2781,"india"
"202","sense","AJZBAP861F6X1","college_bachDegree","no","male",38,"hinduism","give more surveys",10,"BI2A00045","probably yes",2,1562,"india"
"203","sense","AJZBAP861F6X1","college_bachDegree","no","male",38,"hinduism","give more surveys",11,"BI2A00048","probably yes",2,1968,"india"
"204","sense","AJZBAP861F6X1","college_bachDegree","no","male",38,"hinduism","give more surveys",12,"BI2A00011","probably yes",2,4146,"india"
"205","sense","AJZBAP861F6X1","college_bachDegree","no","male",38,"hinduism","give more surveys",13,"BI2A00044","maybe yes",1,3820,"india"
"206","sense","AJZBAP861F6X1","college_bachDegree","no","male",38,"hinduism","give more surveys",14,"BI2A00010","maybe yes",1,2653,"india"
"207","sense","AJZBAP861F6X1","college_bachDegree","no","male",38,"hinduism","give more surveys",15,"BI2A00016","probably yes",2,3464,"india"
"208","sense","AJZBAP861F6X1","college_bachDegree","no","male",38,"hinduism","give more surveys",16,"BI2A00028","maybe yes",1,3558,"india"
"209","sense","AJZBAP861F6X1","college_bachDegree","no","male",38,"hinduism","give more surveys",17,"BI2A00020","maybe yes",1,2061,"india"
"210","sense","AJZBAP861F6X1","college_bachDegree","no","male",38,"hinduism","give more surveys",18,"BI2A00004","maybe yes",1,6365,"india"
"211","sense","AJZBAP861F6X1","college_bachDegree","no","male",38,"hinduism","give more surveys",19,"BI2A00046","equally yes/no",0,5581,"india"
"212","sense","AJZBAP861F6X1","college_bachDegree","no","male",38,"hinduism","give more surveys",20,"BI2A00002","equally yes/no",0,2837,"india"
"213","sense","AJZBAP861F6X1","college_bachDegree","no","male",38,"hinduism","give more surveys",21,"BI2A00012","equally yes/no",0,1845,"india"
"214","sense","AJZBAP861F6X1","college_bachDegree","no","male",38,"hinduism","give more surveys",22,"BI2A00001","maybe no",-1,3553,"india"
"215","sense","AJZBAP861F6X1","college_bachDegree","no","male",38,"hinduism","give more surveys",23,"BI2A00008","maybe no",-1,1813,"india"
"216","sense","AJZBAP861F6X1","college_bachDegree","no","male",38,"hinduism","give more surveys",24,"BI2A00007","maybe no",-1,2868,"india"
"217","sense","AJZBAP861F6X1","college_bachDegree","no","male",38,"hinduism","give more surveys",25,"BI2A00032","equally yes/no",0,3221,"india"
"218","sense","AJZBAP861F6X1","college_bachDegree","no","male",38,"hinduism","give more surveys",26,"BI2A00013","maybe yes",1,2707,"india"
"219","sense","AJZBAP861F6X1","college_bachDegree","no","male",38,"hinduism","give more surveys",27,"BI2A00027","probably no",-2,2997,"india"
"220","sense","AJZBAP861F6X1","college_bachDegree","no","male",38,"hinduism","give more surveys",28,"BI2A00005","equally yes/no",0,3677,"india"
"221","sense","AJZBAP861F6X1","college_bachDegree","no","male",38,"hinduism","give more surveys",29,"BI2A00006","maybe yes",1,1996,"india"
"222","sense","AJZBAP861F6X1","college_bachDegree","no","male",38,"hinduism","give more surveys",30,"BI2A00038","maybe yes",1,1942,"india"
"223","sense","AJZBAP861F6X1","college_bachDegree","no","male",38,"hinduism","give more surveys",31,"BI2A00021","maybe yes",1,2108,"india"
"224","sense","AJZBAP861F6X1","college_bachDegree","no","male",38,"hinduism","give more surveys",32,"BI2A00039","maybe yes",1,2020,"india"
"225","sense","AJZBAP861F6X1","college_bachDegree","no","male",38,"hinduism","give more surveys",33,"BI2A00018","maybe yes",1,2452,"india"
"226","sense","AJZBAP861F6X1","college_bachDegree","no","male",38,"hinduism","give more surveys",34,"BI2A00023","equally yes/no",0,3556,"india"
"227","sense","AJZBAP861F6X1","college_bachDegree","no","male",38,"hinduism","give more surveys",35,"BI2A00031","equally yes/no",0,1429,"india"
"228","sense","AJZBAP861F6X1","college_bachDegree","no","male",38,"hinduism","give more surveys",36,"BI2A00009","equally yes/no",0,1908,"india"
"229","sense","AJZBAP861F6X1","college_bachDegree","no","male",38,"hinduism","give more surveys",37,"BI2A00029","maybe no",-1,3340,"india"
"230","sense","AJZBAP861F6X1","college_bachDegree","no","male",38,"hinduism","give more surveys",38,"BI2A00025","maybe no",-1,1573,"india"
"231","sense","AJZBAP861F6X1","college_bachDegree","no","male",38,"hinduism","give more surveys",39,"BI2A00030","probably no",-2,3214,"india"
"232","sense","AJZBAP861F6X1","college_bachDegree","no","male",38,"hinduism","give more surveys",40,"BI2A00033","probably no",-2,2118,"india"
"233","sense","AJZBAP861F6X1","college_bachDegree","no","male",38,"hinduism","give more surveys",41,"BI2A00022","probably no",-2,2268,"india"
"234","sense","AJZBAP861F6X1","college_bachDegree","no","male",38,"hinduism","give more surveys",42,"BI2A00015","equally yes/no",0,2206,"india"
"235","sense","AJZBAP861F6X1","college_bachDegree","no","male",38,"hinduism","give more surveys",43,"BI2A00014","maybe no",-1,2765,"india"
"236","sense","AJZBAP861F6X1","college_bachDegree","no","male",38,"hinduism","give more surveys",44,"BI2A00035","maybe no",-1,1998,"india"
"237","sense","AJZBAP861F6X1","college_bachDegree","no","male",38,"hinduism","give more surveys",45,"BI2A00017","maybe no",-1,3396,"india"
"238","sense","AJZBAP861F6X1","college_bachDegree","no","male",38,"hinduism","give more surveys",46,"BI2A00026","maybe no",-1,4446,"india"
"239","sense","AJZBAP861F6X1","college_bachDegree","no","male",38,"hinduism","give more surveys",47,"BI2A00043","maybe no",-1,7221,"india"
"240","sense","AJZBAP861F6X1","college_bachDegree","no","male",38,"hinduism","give more surveys",48,"BI2A00036","definitely no",-3,3749,"india"
"241","sense","A28PS7TGEQCFT4","grad_degree","no","male",29,"christianity_catholic","Thank you for this survey.",1,"BI2A00006","probably no",-2,6533,"india"
"242","sense","A28PS7TGEQCFT4","grad_degree","no","male",29,"christianity_catholic","Thank you for this survey.",2,"BI2A00034","maybe yes",1,2145,"india"
"243","sense","A28PS7TGEQCFT4","grad_degree","no","male",29,"christianity_catholic","Thank you for this survey.",3,"BI2A00045","probably yes",2,1932,"india"
"244","sense","A28PS7TGEQCFT4","grad_degree","no","male",29,"christianity_catholic","Thank you for this survey.",4,"BI2A00027","definitely no",-3,3573,"india"
"245","sense","A28PS7TGEQCFT4","grad_degree","no","male",29,"christianity_catholic","Thank you for this survey.",5,"BI2A00017","equally yes/no",0,3190,"india"
"246","sense","A28PS7TGEQCFT4","grad_degree","no","male",29,"christianity_catholic","Thank you for this survey.",6,"BI2A00012","maybe no",-1,2131,"india"
"247","sense","A28PS7TGEQCFT4","grad_degree","no","male",29,"christianity_catholic","Thank you for this survey.",7,"BI2A00022","probably yes",2,2381,"india"
"248","sense","A28PS7TGEQCFT4","grad_degree","no","male",29,"christianity_catholic","Thank you for this survey.",8,"BI2A00002","maybe no",-1,4565,"india"
"249","sense","A28PS7TGEQCFT4","grad_degree","no","male",29,"christianity_catholic","Thank you for this survey.",9,"BI2A00046","definitely yes",3,2221,"india"
"250","sense","A28PS7TGEQCFT4","grad_degree","no","male",29,"christianity_catholic","Thank you for this survey.",10,"BI2A00015","maybe yes",1,2197,"india"
"251","sense","A28PS7TGEQCFT4","grad_degree","no","male",29,"christianity_catholic","Thank you for this survey.",11,"BI2A00024","equally yes/no",0,1060,"india"
"252","sense","A28PS7TGEQCFT4","grad_degree","no","male",29,"christianity_catholic","Thank you for this survey.",12,"BI2A00029","maybe no",-1,1318,"india"
"253","sense","A28PS7TGEQCFT4","grad_degree","no","male",29,"christianity_catholic","Thank you for this survey.",13,"BI2A00040","probably no",-2,3141,"india"
"254","sense","A28PS7TGEQCFT4","grad_degree","no","male",29,"christianity_catholic","Thank you for this survey.",14,"BI2A00019","maybe no",-1,1340,"india"
"255","sense","A28PS7TGEQCFT4","grad_degree","no","male",29,"christianity_catholic","Thank you for this survey.",15,"BI2A00011","maybe yes",1,3388,"india"
"256","sense","A28PS7TGEQCFT4","grad_degree","no","male",29,"christianity_catholic","Thank you for this survey.",16,"BI2A00039","equally yes/no",0,2221,"india"
"257","sense","A28PS7TGEQCFT4","grad_degree","no","male",29,"christianity_catholic","Thank you for this survey.",17,"BI2A00023","probably yes",2,1572,"india"
"258","sense","A28PS7TGEQCFT4","grad_degree","no","male",29,"christianity_catholic","Thank you for this survey.",18,"BI2A00044","definitely no",-3,1677,"india"
"259","sense","A28PS7TGEQCFT4","grad_degree","no","male",29,"christianity_catholic","Thank you for this survey.",19,"BI2A00007","probably no",-2,2149,"india"
"260","sense","A28PS7TGEQCFT4","grad_degree","no","male",29,"christianity_catholic","Thank you for this survey.",20,"BI2A00031","definitely no",-3,1475,"india"
"261","sense","A28PS7TGEQCFT4","grad_degree","no","male",29,"christianity_catholic","Thank you for this survey.",21,"BI2A00014","maybe no",-1,1366,"india"
"262","sense","A28PS7TGEQCFT4","grad_degree","no","male",29,"christianity_catholic","Thank you for this survey.",22,"BI2A00038","equally yes/no",0,1236,"india"
"263","sense","A28PS7TGEQCFT4","grad_degree","no","male",29,"christianity_catholic","Thank you for this survey.",23,"BI2A00026","probably no",-2,1692,"india"
"264","sense","A28PS7TGEQCFT4","grad_degree","no","male",29,"christianity_catholic","Thank you for this survey.",24,"BI2A00033","maybe no",-1,1109,"india"
"265","sense","A28PS7TGEQCFT4","grad_degree","no","male",29,"christianity_catholic","Thank you for this survey.",25,"BI2A00047","definitely no",-3,1253,"india"
"266","sense","A28PS7TGEQCFT4","grad_degree","no","male",29,"christianity_catholic","Thank you for this survey.",26,"BI2A00013","maybe no",-1,2761,"india"
"267","sense","A28PS7TGEQCFT4","grad_degree","no","male",29,"christianity_catholic","Thank you for this survey.",27,"BI2A00001","probably no",-2,2237,"india"
"268","sense","A28PS7TGEQCFT4","grad_degree","no","male",29,"christianity_catholic","Thank you for this survey.",28,"BI2A00016","probably yes",2,21570,"india"
"269","sense","A28PS7TGEQCFT4","grad_degree","no","male",29,"christianity_catholic","Thank you for this survey.",29,"BI2A00041","maybe no",-1,1677,"india"
"270","sense","A28PS7TGEQCFT4","grad_degree","no","male",29,"christianity_catholic","Thank you for this survey.",30,"BI2A00032","definitely no",-3,1799,"india"
"271","sense","A28PS7TGEQCFT4","grad_degree","no","male",29,"christianity_catholic","Thank you for this survey.",31,"BI2A00042","maybe no",-1,1422,"india"
"272","sense","A28PS7TGEQCFT4","grad_degree","no","male",29,"christianity_catholic","Thank you for this survey.",32,"BI2A00025","probably no",-2,2269,"india"
"273","sense","A28PS7TGEQCFT4","grad_degree","no","male",29,"christianity_catholic","Thank you for this survey.",33,"BI2A00037","definitely no",-3,1685,"india"
"274","sense","A28PS7TGEQCFT4","grad_degree","no","male",29,"christianity_catholic","Thank you for this survey.",34,"BI2A00043","maybe no",-1,1277,"india"
"275","sense","A28PS7TGEQCFT4","grad_degree","no","male",29,"christianity_catholic","Thank you for this survey.",35,"BI2A00009","maybe yes",1,1497,"india"
"276","sense","A28PS7TGEQCFT4","grad_degree","no","male",29,"christianity_catholic","Thank you for this survey.",36,"BI2A00035","equally yes/no",0,2913,"india"
"277","sense","A28PS7TGEQCFT4","grad_degree","no","male",29,"christianity_catholic","Thank you for this survey.",37,"BI2A00030","definitely no",-3,1853,"india"
"278","sense","A28PS7TGEQCFT4","grad_degree","no","male",29,"christianity_catholic","Thank you for this survey.",38,"BI2A00048","probably no",-2,1054,"india"
"279","sense","A28PS7TGEQCFT4","grad_degree","no","male",29,"christianity_catholic","Thank you for this survey.",39,"BI2A00004","probably yes",2,3174,"india"
"280","sense","A28PS7TGEQCFT4","grad_degree","no","male",29,"christianity_catholic","Thank you for this survey.",40,"BI2A00003","maybe no",-1,1718,"india"
"281","sense","A28PS7TGEQCFT4","grad_degree","no","male",29,"christianity_catholic","Thank you for this survey.",41,"BI2A00028","definitely no",-3,1780,"india"
"282","sense","A28PS7TGEQCFT4","grad_degree","no","male",29,"christianity_catholic","Thank you for this survey.",42,"BI2A00010","probably yes",2,3413,"india"
"283","sense","A28PS7TGEQCFT4","grad_degree","no","male",29,"christianity_catholic","Thank you for this survey.",43,"BI2A00018","maybe no",-1,1557,"india"
"284","sense","A28PS7TGEQCFT4","grad_degree","no","male",29,"christianity_catholic","Thank you for this survey.",44,"BI2A00020","probably no",-2,1684,"india"
"285","sense","A28PS7TGEQCFT4","grad_degree","no","male",29,"christianity_catholic","Thank you for this survey.",45,"BI2A00021","definitely no",-3,1973,"india"
"286","sense","A28PS7TGEQCFT4","grad_degree","no","male",29,"christianity_catholic","Thank you for this survey.",46,"BI2A00036","maybe no",-1,1950,"india"
"287","sense","A28PS7TGEQCFT4","grad_degree","no","male",29,"christianity_catholic","Thank you for this survey.",47,"BI2A00005","probably no",-2,2614,"india"
"288","sense","A28PS7TGEQCFT4","grad_degree","no","male",29,"christianity_catholic","Thank you for this survey.",48,"BI2A00008","maybe no",-1,1918,"india"
"289","animal","A19HCBT1EH8484","grad_degree","no","male",37,"hinduism","I loved completing this HIT.",1,"BI2A00012","maybe yes",1,1541,"india"
"290","animal","A19HCBT1EH8484","grad_degree","no","male",37,"hinduism","I loved completing this HIT.",2,"BI2A00003","probably yes",2,434,"india"
"291","animal","A19HCBT1EH8484","grad_degree","no","male",37,"hinduism","I loved completing this HIT.",3,"BI2A00009","definitely yes",3,359,"india"
"292","animal","A19HCBT1EH8484","grad_degree","no","male",37,"hinduism","I loved completing this HIT.",4,"BI2A00006","maybe no",-1,1058,"india"
"293","animal","A19HCBT1EH8484","grad_degree","no","male",37,"hinduism","I loved completing this HIT.",5,"BI2A00017","equally yes/no",0,389,"india"
"294","animal","A19HCBT1EH8484","grad_degree","no","male",37,"hinduism","I loved completing this HIT.",6,"BI2A00026","maybe yes",1,359,"india"
"295","animal","A19HCBT1EH8484","grad_degree","no","male",37,"hinduism","I loved completing this HIT.",7,"BI2A00007","probably no",-2,549,"india"
"296","animal","A19HCBT1EH8484","grad_degree","no","male",37,"hinduism","I loved completing this HIT.",8,"BI2A00013","maybe no",-1,357,"india"
"297","animal","A19HCBT1EH8484","grad_degree","no","male",37,"hinduism","I loved completing this HIT.",9,"BI2A00048","equally yes/no",0,345,"india"
"298","animal","A19HCBT1EH8484","grad_degree","no","male",37,"hinduism","I loved completing this HIT.",10,"BI2A00016","maybe yes",1,1068,"india"
"299","animal","A19HCBT1EH8484","grad_degree","no","male",37,"hinduism","I loved completing this HIT.",11,"BI2A00035","equally yes/no",0,401,"india"
"300","animal","A19HCBT1EH8484","grad_degree","no","male",37,"hinduism","I loved completing this HIT.",12,"BI2A00029","maybe no",-1,396,"india"
"301","animal","A19HCBT1EH8484","grad_degree","no","male",37,"hinduism","I loved completing this HIT.",13,"BI2A00025","equally yes/no",0,405,"india"
"302","animal","A19HCBT1EH8484","grad_degree","no","male",37,"hinduism","I loved completing this HIT.",14,"BI2A00014","maybe yes",1,396,"india"
"303","animal","A19HCBT1EH8484","grad_degree","no","male",37,"hinduism","I loved completing this HIT.",15,"BI2A00002","probably yes",2,390,"india"
"304","animal","A19HCBT1EH8484","grad_degree","no","male",37,"hinduism","I loved completing this HIT.",16,"BI2A00001","definitely yes",3,330,"india"
"305","animal","A19HCBT1EH8484","grad_degree","no","male",37,"hinduism","I loved completing this HIT.",17,"BI2A00031","probably yes",2,395,"india"
"306","animal","A19HCBT1EH8484","grad_degree","no","male",37,"hinduism","I loved completing this HIT.",18,"BI2A00039","maybe yes",1,375,"india"
"307","animal","A19HCBT1EH8484","grad_degree","no","male",37,"hinduism","I loved completing this HIT.",19,"BI2A00019","equally yes/no",0,393,"india"
"308","animal","A19HCBT1EH8484","grad_degree","no","male",37,"hinduism","I loved completing this HIT.",20,"BI2A00022","maybe yes",1,355,"india"
"309","animal","A19HCBT1EH8484","grad_degree","no","male",37,"hinduism","I loved completing this HIT.",21,"BI2A00023","maybe no",-1,557,"india"
"310","animal","A19HCBT1EH8484","grad_degree","no","male",37,"hinduism","I loved completing this HIT.",22,"BI2A00024","equally yes/no",0,316,"india"
"311","animal","A19HCBT1EH8484","grad_degree","no","male",37,"hinduism","I loved completing this HIT.",23,"BI2A00018","maybe yes",1,335,"india"
"312","animal","A19HCBT1EH8484","grad_degree","no","male",37,"hinduism","I loved completing this HIT.",24,"BI2A00043","probably yes",2,379,"india"
"313","animal","A19HCBT1EH8484","grad_degree","no","male",37,"hinduism","I loved completing this HIT.",25,"BI2A00034","maybe yes",1,356,"india"
"314","animal","A19HCBT1EH8484","grad_degree","no","male",37,"hinduism","I loved completing this HIT.",26,"BI2A00032","maybe no",-1,829,"india"
"315","animal","A19HCBT1EH8484","grad_degree","no","male",37,"hinduism","I loved completing this HIT.",27,"BI2A00044","probably no",-2,389,"india"
"316","animal","A19HCBT1EH8484","grad_degree","no","male",37,"hinduism","I loved completing this HIT.",28,"BI2A00027","maybe no",-1,349,"india"
"317","animal","A19HCBT1EH8484","grad_degree","no","male",37,"hinduism","I loved completing this HIT.",29,"BI2A00015","equally yes/no",0,805,"india"
"318","animal","A19HCBT1EH8484","grad_degree","no","male",37,"hinduism","I loved completing this HIT.",30,"BI2A00020","maybe yes",1,357,"india"
"319","animal","A19HCBT1EH8484","grad_degree","no","male",37,"hinduism","I loved completing this HIT.",31,"BI2A00005","probably yes",2,348,"india"
"320","animal","A19HCBT1EH8484","grad_degree","no","male",37,"hinduism","I loved completing this HIT.",32,"BI2A00033","definitely yes",3,340,"india"
"321","animal","A19HCBT1EH8484","grad_degree","no","male",37,"hinduism","I loved completing this HIT.",33,"BI2A00042","probably yes",2,373,"india"
"322","animal","A19HCBT1EH8484","grad_degree","no","male",37,"hinduism","I loved completing this HIT.",34,"BI2A00028","maybe yes",1,346,"india"
"323","animal","A19HCBT1EH8484","grad_degree","no","male",37,"hinduism","I loved completing this HIT.",35,"BI2A00011","equally yes/no",0,480,"india"
"324","animal","A19HCBT1EH8484","grad_degree","no","male",37,"hinduism","I loved completing this HIT.",36,"BI2A00004","maybe yes",1,365,"india"
"325","animal","A19HCBT1EH8484","grad_degree","no","male",37,"hinduism","I loved completing this HIT.",37,"BI2A00047","equally yes/no",0,349,"india"
"326","animal","A19HCBT1EH8484","grad_degree","no","male",37,"hinduism","I loved completing this HIT.",38,"BI2A00041","maybe no",-1,425,"india"
"327","animal","A19HCBT1EH8484","grad_degree","no","male",37,"hinduism","I loved completing this HIT.",39,"BI2A00008","equally yes/no",0,347,"india"
"328","animal","A19HCBT1EH8484","grad_degree","no","male",37,"hinduism","I loved completing this HIT.",40,"BI2A00038","maybe yes",1,348,"india"
"329","animal","A19HCBT1EH8484","grad_degree","no","male",37,"hinduism","I loved completing this HIT.",41,"BI2A00036","probably yes",2,388,"india"
"330","animal","A19HCBT1EH8484","grad_degree","no","male",37,"hinduism","I loved completing this HIT.",42,"BI2A00021","definitely yes",3,438,"india"
"331","animal","A19HCBT1EH8484","grad_degree","no","male",37,"hinduism","I loved completing this HIT.",43,"BI2A00045","probably yes",2,380,"india"
"332","animal","A19HCBT1EH8484","grad_degree","no","male",37,"hinduism","I loved completing this HIT.",44,"BI2A00046","maybe no",-1,645,"india"
"333","animal","A19HCBT1EH8484","grad_degree","no","male",37,"hinduism","I loved completing this HIT.",45,"BI2A00040","equally yes/no",0,328,"india"
"334","animal","A19HCBT1EH8484","grad_degree","no","male",37,"hinduism","I loved completing this HIT.",46,"BI2A00037","maybe yes",1,395,"india"
"335","animal","A19HCBT1EH8484","grad_degree","no","male",37,"hinduism","I loved completing this HIT.",47,"BI2A00030","probably yes",2,380,"india"
"336","animal","A19HCBT1EH8484","grad_degree","no","male",37,"hinduism","I loved completing this HIT.",48,"BI2A00010","maybe yes",1,421,"india"
"337","hungry","A370V697M1KW6R","college_bachDegree","no","male",34,"hinduism","no",1,"BI2A00034","probably no",-2,8361,"india"
"338","hungry","A370V697M1KW6R","college_bachDegree","no","male",34,"hinduism","no",2,"BI2A00011","probably no",-2,18588,"india"
"339","hungry","A370V697M1KW6R","college_bachDegree","no","male",34,"hinduism","no",3,"BI2A00024","maybe no",-1,8599,"india"
"340","hungry","A370V697M1KW6R","college_bachDegree","no","male",34,"hinduism","no",4,"BI2A00031","probably no",-2,8589,"india"
"341","hungry","A370V697M1KW6R","college_bachDegree","no","male",34,"hinduism","no",5,"BI2A00016","probably no",-2,8095,"india"
"342","hungry","A370V697M1KW6R","college_bachDegree","no","male",34,"hinduism","no",6,"BI2A00004","probably no",-2,6976,"india"
"343","hungry","A370V697M1KW6R","college_bachDegree","no","male",34,"hinduism","no",7,"BI2A00028","probably no",-2,6332,"india"
"344","hungry","A370V697M1KW6R","college_bachDegree","no","male",34,"hinduism","no",8,"BI2A00025","probably no",-2,9480,"india"
"345","hungry","A370V697M1KW6R","college_bachDegree","no","male",34,"hinduism","no",9,"BI2A00019","probably no",-2,9476,"india"
"346","hungry","A370V697M1KW6R","college_bachDegree","no","male",34,"hinduism","no",10,"BI2A00041","probably no",-2,7285,"india"
"347","hungry","A370V697M1KW6R","college_bachDegree","no","male",34,"hinduism","no",11,"BI2A00042","probably no",-2,7301,"india"
"348","hungry","A370V697M1KW6R","college_bachDegree","no","male",34,"hinduism","no",12,"BI2A00040","probably no",-2,7352,"india"
"349","hungry","A370V697M1KW6R","college_bachDegree","no","male",34,"hinduism","no",13,"BI2A00045","probably no",-2,9236,"india"
"350","hungry","A370V697M1KW6R","college_bachDegree","no","male",34,"hinduism","no",14,"BI2A00046","probably no",-2,6851,"india"
"351","hungry","A370V697M1KW6R","college_bachDegree","no","male",34,"hinduism","no",15,"BI2A00030","probably no",-2,9709,"india"
"352","hungry","A370V697M1KW6R","college_bachDegree","no","male",34,"hinduism","no",16,"BI2A00012","probably no",-2,20343,"india"
"353","hungry","A370V697M1KW6R","college_bachDegree","no","male",34,"hinduism","no",17,"BI2A00035","probably no",-2,7922,"india"
"354","hungry","A370V697M1KW6R","college_bachDegree","no","male",34,"hinduism","no",18,"BI2A00013","probably no",-2,9483,"india"
"355","hungry","A370V697M1KW6R","college_bachDegree","no","male",34,"hinduism","no",19,"BI2A00021","probably no",-2,12572,"india"
"356","hungry","A370V697M1KW6R","college_bachDegree","no","male",34,"hinduism","no",20,"BI2A00002","equally yes/no",0,5925,"india"
"357","hungry","A370V697M1KW6R","college_bachDegree","no","male",34,"hinduism","no",21,"BI2A00022","probably no",-2,28468,"india"
"358","hungry","A370V697M1KW6R","college_bachDegree","no","male",34,"hinduism","no",22,"BI2A00006","probably no",-2,7130,"india"
"359","hungry","A370V697M1KW6R","college_bachDegree","no","male",34,"hinduism","no",23,"BI2A00009","probably no",-2,5591,"india"
"360","hungry","A370V697M1KW6R","college_bachDegree","no","male",34,"hinduism","no",24,"BI2A00033","probably no",-2,9432,"india"
"361","hungry","A370V697M1KW6R","college_bachDegree","no","male",34,"hinduism","no",25,"BI2A00008","probably no",-2,8194,"india"
"362","hungry","A370V697M1KW6R","college_bachDegree","no","male",34,"hinduism","no",26,"BI2A00039","probably no",-2,20106,"india"
"363","hungry","A370V697M1KW6R","college_bachDegree","no","male",34,"hinduism","no",27,"BI2A00007","probably no",-2,7648,"india"
"364","hungry","A370V697M1KW6R","college_bachDegree","no","male",34,"hinduism","no",28,"BI2A00005","probably no",-2,10784,"india"
"365","hungry","A370V697M1KW6R","college_bachDegree","no","male",34,"hinduism","no",29,"BI2A00015","probably no",-2,9062,"india"
"366","hungry","A370V697M1KW6R","college_bachDegree","no","male",34,"hinduism","no",30,"BI2A00003","probably no",-2,10122,"india"
"367","hungry","A370V697M1KW6R","college_bachDegree","no","male",34,"hinduism","no",31,"BI2A00020","probably no",-2,7947,"india"
"368","hungry","A370V697M1KW6R","college_bachDegree","no","male",34,"hinduism","no",32,"BI2A00047","probably no",-2,6825,"india"
"369","hungry","A370V697M1KW6R","college_bachDegree","no","male",34,"hinduism","no",33,"BI2A00023","probably no",-2,9978,"india"
"370","hungry","A370V697M1KW6R","college_bachDegree","no","male",34,"hinduism","no",34,"BI2A00036","probably no",-2,6697,"india"
"371","hungry","A370V697M1KW6R","college_bachDegree","no","male",34,"hinduism","no",35,"BI2A00014","probably no",-2,7625,"india"
"372","hungry","A370V697M1KW6R","college_bachDegree","no","male",34,"hinduism","no",36,"BI2A00037","probably no",-2,9193,"india"
"373","hungry","A370V697M1KW6R","college_bachDegree","no","male",34,"hinduism","no",37,"BI2A00010","probably no",-2,6719,"india"
"374","hungry","A370V697M1KW6R","college_bachDegree","no","male",34,"hinduism","no",38,"BI2A00027","probably no",-2,7947,"india"
"375","hungry","A370V697M1KW6R","college_bachDegree","no","male",34,"hinduism","no",39,"BI2A00044","probably no",-2,8209,"india"
"376","hungry","A370V697M1KW6R","college_bachDegree","no","male",34,"hinduism","no",40,"BI2A00029","probably no",-2,9089,"india"
"377","hungry","A370V697M1KW6R","college_bachDegree","no","male",34,"hinduism","no",41,"BI2A00001","probably no",-2,7576,"india"
"378","hungry","A370V697M1KW6R","college_bachDegree","no","male",34,"hinduism","no",42,"BI2A00018","probably no",-2,7811,"india"
"379","hungry","A370V697M1KW6R","college_bachDegree","no","male",34,"hinduism","no",43,"BI2A00048","probably no",-2,9475,"india"
"380","hungry","A370V697M1KW6R","college_bachDegree","no","male",34,"hinduism","no",44,"BI2A00032","probably no",-2,9515,"india"
"381","hungry","A370V697M1KW6R","college_bachDegree","no","male",34,"hinduism","no",45,"BI2A00017","probably no",-2,8850,"india"
"382","hungry","A370V697M1KW6R","college_bachDegree","no","male",34,"hinduism","no",46,"BI2A00026","probably no",-2,10651,"india"
"383","hungry","A370V697M1KW6R","college_bachDegree","no","male",34,"hinduism","no",47,"BI2A00043","probably no",-2,7618,"india"
"384","hungry","A370V697M1KW6R","college_bachDegree","no","male",34,"hinduism","no",48,"BI2A00038","probably no",-2,9245,"india"
"385","pain","A7J4Y6FOPZ8YV","college_bachDegree","no","male",32,"buddhism","",1,"BI2A00040","equally yes/no",0,19621,"india"
"386","pain","A7J4Y6FOPZ8YV","college_bachDegree","no","male",32,"hinduism","",2,"BI2A00023","probably yes",2,6706,"india"
"387","pain","A7J4Y6FOPZ8YV","college_bachDegree","no","male",32,"buddhism","",3,"BI2A00028","maybe yes",1,5477,"india"
"388","pain","A7J4Y6FOPZ8YV","college_bachDegree","no","male",32,"hinduism","",4,"BI2A00004","maybe yes",1,11720,"india"
"389","pain","A7J4Y6FOPZ8YV","college_bachDegree","no","male",32,"buddhism","",5,"BI2A00045","maybe yes",1,2505,"india"
"390","pain","A7J4Y6FOPZ8YV","college_bachDegree","no","male",32,"hinduism","",6,"BI2A00006","probably yes",2,16238,"india"
"391","pain","A7J4Y6FOPZ8YV","college_bachDegree","no","male",32,"buddhism","",7,"BI2A00048","maybe yes",1,3952,"india"
"392","pain","A7J4Y6FOPZ8YV","college_bachDegree","no","male",32,"hinduism","",8,"BI2A00003","definitely yes",3,2624,"india"
"393","pain","A7J4Y6FOPZ8YV","college_bachDegree","no","male",32,"buddhism","",9,"BI2A00042","probably yes",2,4073,"india"
"394","pain","A7J4Y6FOPZ8YV","college_bachDegree","no","male",32,"hinduism","",10,"BI2A00007","definitely yes",3,2407,"india"
"395","pain","A7J4Y6FOPZ8YV","college_bachDegree","no","male",32,"buddhism","",11,"BI2A00047","definitely yes",3,2298,"india"
"396","pain","A7J4Y6FOPZ8YV","college_bachDegree","no","male",32,"hinduism","",12,"BI2A00041","definitely no",-3,3631,"india"
"397","pain","A7J4Y6FOPZ8YV","college_bachDegree","no","male",32,"buddhism","",13,"BI2A00044","definitely no",-3,2181,"india"
"398","pain","A7J4Y6FOPZ8YV","college_bachDegree","no","male",32,"hinduism","",14,"BI2A00029","maybe yes",1,3730,"india"
"399","pain","A7J4Y6FOPZ8YV","college_bachDegree","no","male",32,"buddhism","",15,"BI2A00030","probably no",-2,2564,"india"
"400","pain","A7J4Y6FOPZ8YV","college_bachDegree","no","male",32,"hinduism","",16,"BI2A00019","definitely yes",3,2412,"india"
"401","pain","A7J4Y6FOPZ8YV","college_bachDegree","no","male",32,"buddhism","",17,"BI2A00020","maybe yes",1,4222,"india"
"402","pain","A7J4Y6FOPZ8YV","college_bachDegree","no","male",32,"hinduism","",18,"BI2A00033","probably no",-2,2307,"india"
"403","pain","A7J4Y6FOPZ8YV","college_bachDegree","no","male",32,"buddhism","",19,"BI2A00018","definitely no",-3,2382,"india"
"404","pain","A7J4Y6FOPZ8YV","college_bachDegree","no","male",32,"hinduism","",20,"BI2A00001","probably yes",2,3114,"india"
"405","pain","A7J4Y6FOPZ8YV","college_bachDegree","no","male",32,"buddhism","",21,"BI2A00046","probably yes",2,1890,"india"
"406","pain","A7J4Y6FOPZ8YV","college_bachDegree","no","male",32,"hinduism","",22,"BI2A00014","maybe yes",1,6211,"india"
"407","pain","A7J4Y6FOPZ8YV","college_bachDegree","no","male",32,"buddhism","",23,"BI2A00002","definitely yes",3,2457,"india"
"408","pain","A7J4Y6FOPZ8YV","college_bachDegree","no","male",32,"hinduism","",24,"BI2A00022","probably yes",2,2472,"india"
"409","pain","A7J4Y6FOPZ8YV","college_bachDegree","no","male",32,"buddhism","",25,"BI2A00036","probably yes",2,2729,"india"
"410","pain","A7J4Y6FOPZ8YV","college_bachDegree","no","male",32,"hinduism","",26,"BI2A00031","equally yes/no",0,4896,"india"
"411","pain","A7J4Y6FOPZ8YV","college_bachDegree","no","male",32,"buddhism","",27,"BI2A00017","maybe no",-1,5073,"india"
"412","pain","A7J4Y6FOPZ8YV","college_bachDegree","no","male",32,"hinduism","",28,"BI2A00011","definitely yes",3,2694,"india"
"413","pain","A7J4Y6FOPZ8YV","college_bachDegree","no","male",32,"buddhism","",29,"BI2A00016","probably yes",2,3438,"india"
"414","pain","A7J4Y6FOPZ8YV","college_bachDegree","no","male",32,"hinduism","",30,"BI2A00021","maybe yes",1,7714,"india"
"415","pain","A7J4Y6FOPZ8YV","college_bachDegree","no","male",32,"buddhism","",31,"BI2A00025","definitely yes",3,1709,"india"
"416","pain","A7J4Y6FOPZ8YV","college_bachDegree","no","male",32,"hinduism","",32,"BI2A00035","probably no",-2,2396,"india"
"417","pain","A7J4Y6FOPZ8YV","college_bachDegree","no","male",32,"buddhism","",33,"BI2A00039","probably no",-2,2838,"india"
"418","pain","A7J4Y6FOPZ8YV","college_bachDegree","no","male",32,"hinduism","",34,"BI2A00043","equally yes/no",0,6175,"india"
"419","pain","A7J4Y6FOPZ8YV","college_bachDegree","no","male",32,"buddhism","",35,"BI2A00026","probably yes",2,2348,"india"
"420","pain","A7J4Y6FOPZ8YV","college_bachDegree","no","male",32,"hinduism","",36,"BI2A00008","definitely yes",3,1791,"india"
"421","pain","A7J4Y6FOPZ8YV","college_bachDegree","no","male",32,"buddhism","",37,"BI2A00032","equally yes/no",0,4578,"india"
"422","pain","A7J4Y6FOPZ8YV","college_bachDegree","no","male",32,"hinduism","",38,"BI2A00012","maybe yes",1,7038,"india"
"423","pain","A7J4Y6FOPZ8YV","college_bachDegree","no","male",32,"buddhism","",39,"BI2A00005","definitely yes",3,5105,"india"
"424","pain","A7J4Y6FOPZ8YV","college_bachDegree","no","male",32,"hinduism","",40,"BI2A00013","probably yes",2,1976,"india"
"425","pain","A7J4Y6FOPZ8YV","college_bachDegree","no","male",32,"buddhism","",41,"BI2A00027","probably no",-2,4080,"india"
"426","pain","A7J4Y6FOPZ8YV","college_bachDegree","no","male",32,"hinduism","",42,"BI2A00015","definitely yes",3,2237,"india"
"427","pain","A7J4Y6FOPZ8YV","college_bachDegree","no","male",32,"buddhism","",43,"BI2A00037","maybe no",-1,3502,"india"
"428","pain","A7J4Y6FOPZ8YV","college_bachDegree","no","male",32,"hinduism","",44,"BI2A00010","probably yes",2,2639,"india"
"429","pain","A7J4Y6FOPZ8YV","college_bachDegree","no","male",32,"buddhism","",45,"BI2A00038","probably no",-2,4736,"india"
"430","pain","A7J4Y6FOPZ8YV","college_bachDegree","no","male",32,"hinduism","",46,"BI2A00034","probably no",-2,2426,"india"
"431","pain","A7J4Y6FOPZ8YV","college_bachDegree","no","male",32,"buddhism","",47,"BI2A00009","probably yes",2,2705,"india"
"432","pain","A7J4Y6FOPZ8YV","college_bachDegree","no","male",32,"hinduism","",48,"BI2A00024","definitely yes",3,4852,"india"
"433","pain","A14J86Y1L3RCQ0","college_assocDegree","yes_only","male",35,"christianity_catholic","Good survey",1,"BI2A00005","definitely no",-3,11405,"india"
"434","pain","A14J86Y1L3RCQ0","college_assocDegree","yes_only","male",35,"christianity_catholic","Good survey",2,"BI2A00001","definitely no",-3,7631,"india"
"435","pain","A14J86Y1L3RCQ0","college_assocDegree","yes_only","male",35,"christianity_catholic","Good survey",3,"BI2A00013","definitely no",-3,7331,"india"
"436","pain","A14J86Y1L3RCQ0","college_assocDegree","yes_only","male",35,"christianity_catholic","Good survey",4,"BI2A00020","maybe yes",1,4164,"india"
"437","pain","A14J86Y1L3RCQ0","college_assocDegree","yes_only","male",35,"christianity_catholic","Good survey",5,"BI2A00002","definitely no",-3,2300,"india"
"438","pain","A14J86Y1L3RCQ0","college_assocDegree","yes_only","male",35,"christianity_catholic","Good survey",6,"BI2A00045","maybe no",-1,6917,"india"
"439","pain","A14J86Y1L3RCQ0","college_assocDegree","yes_only","male",35,"christianity_catholic","Good survey",7,"BI2A00031","probably no",-2,4317,"india"
"440","pain","A14J86Y1L3RCQ0","college_assocDegree","yes_only","male",35,"christianity_catholic","Good survey",8,"BI2A00016","probably yes",2,6603,"india"
"441","pain","A14J86Y1L3RCQ0","college_assocDegree","yes_only","male",35,"christianity_catholic","Good survey",9,"BI2A00004","maybe yes",1,12036,"india"
"442","pain","A14J86Y1L3RCQ0","college_assocDegree","yes_only","male",35,"christianity_catholic","Good survey",10,"BI2A00044","probably no",-2,2204,"india"
"443","pain","A14J86Y1L3RCQ0","college_assocDegree","yes_only","male",35,"christianity_catholic","Good survey",11,"BI2A00024","definitely no",-3,4617,"india"
"444","pain","A14J86Y1L3RCQ0","college_assocDegree","yes_only","male",35,"christianity_catholic","Good survey",12,"BI2A00025","maybe no",-1,6421,"india"
"445","pain","A14J86Y1L3RCQ0","college_assocDegree","yes_only","male",35,"christianity_catholic","Good survey",13,"BI2A00029","probably no",-2,9146,"india"
"446","pain","A14J86Y1L3RCQ0","college_assocDegree","yes_only","male",35,"christianity_catholic","Good survey",14,"BI2A00033","maybe yes",1,5148,"india"
"447","pain","A14J86Y1L3RCQ0","college_assocDegree","yes_only","male",35,"christianity_catholic","Good survey",15,"BI2A00012","probably yes",2,3780,"india"
"448","pain","A14J86Y1L3RCQ0","college_assocDegree","yes_only","male",35,"christianity_catholic","Good survey",16,"BI2A00038","probably no",-2,3117,"india"
"449","pain","A14J86Y1L3RCQ0","college_assocDegree","yes_only","male",35,"christianity_catholic","Good survey",17,"BI2A00022","probably yes",2,6243,"india"
"450","pain","A14J86Y1L3RCQ0","college_assocDegree","yes_only","male",35,"christianity_catholic","Good survey",18,"BI2A00006","definitely yes",3,6066,"india"
"451","pain","A14J86Y1L3RCQ0","college_assocDegree","yes_only","male",35,"christianity_catholic","Good survey",19,"BI2A00017","maybe no",-1,4806,"india"
"452","pain","A14J86Y1L3RCQ0","college_assocDegree","yes_only","male",35,"christianity_catholic","Good survey",20,"BI2A00008","probably yes",2,2203,"india"
"453","pain","A14J86Y1L3RCQ0","college_assocDegree","yes_only","male",35,"christianity_catholic","Good survey",21,"BI2A00041","maybe yes",1,2556,"india"
"454","pain","A14J86Y1L3RCQ0","college_assocDegree","yes_only","male",35,"christianity_catholic","Good survey",22,"BI2A00023","probably yes",2,10444,"india"
"455","pain","A14J86Y1L3RCQ0","college_assocDegree","yes_only","male",35,"christianity_catholic","Good survey",23,"BI2A00032","maybe no",-1,2628,"india"
"456","pain","A14J86Y1L3RCQ0","college_assocDegree","yes_only","male",35,"christianity_catholic","Good survey",24,"BI2A00007","definitely yes",3,2189,"india"
"457","pain","A14J86Y1L3RCQ0","college_assocDegree","yes_only","male",35,"christianity_catholic","Good survey",25,"BI2A00021","probably no",-2,1843,"india"
"458","pain","A14J86Y1L3RCQ0","college_assocDegree","yes_only","male",35,"christianity_catholic","Good survey",26,"BI2A00009","probably yes",2,5432,"india"
"459","pain","A14J86Y1L3RCQ0","college_assocDegree","yes_only","male",35,"christianity_catholic","Good survey",27,"BI2A00040","probably no",-2,6821,"india"
"460","pain","A14J86Y1L3RCQ0","college_assocDegree","yes_only","male",35,"christianity_catholic","Good survey",28,"BI2A00030","maybe yes",1,8289,"india"
"461","pain","A14J86Y1L3RCQ0","college_assocDegree","yes_only","male",35,"christianity_catholic","Good survey",29,"BI2A00014","maybe yes",1,3252,"india"
"462","pain","A14J86Y1L3RCQ0","college_assocDegree","yes_only","male",35,"christianity_catholic","Good survey",30,"BI2A00043","definitely yes",3,3949,"india"
"463","pain","A14J86Y1L3RCQ0","college_assocDegree","yes_only","male",35,"christianity_catholic","Good survey",31,"BI2A00011","maybe no",-1,2423,"india"
"464","pain","A14J86Y1L3RCQ0","college_assocDegree","yes_only","male",35,"christianity_catholic","Good survey",32,"BI2A00046","probably yes",2,5772,"india"
"465","pain","A14J86Y1L3RCQ0","college_assocDegree","yes_only","male",35,"christianity_catholic","Good survey",33,"BI2A00018","maybe no",-1,2396,"india"
"466","pain","A14J86Y1L3RCQ0","college_assocDegree","yes_only","male",35,"christianity_catholic","Good survey",34,"BI2A00027","definitely no",-3,2132,"india"
"467","pain","A14J86Y1L3RCQ0","college_assocDegree","yes_only","male",35,"christianity_catholic","Good survey",35,"BI2A00026","definitely no",-3,3004,"india"
"468","pain","A14J86Y1L3RCQ0","college_assocDegree","yes_only","male",35,"christianity_catholic","Good survey",36,"BI2A00019","probably yes",2,2269,"india"
"469","pain","A14J86Y1L3RCQ0","college_assocDegree","yes_only","male",35,"christianity_catholic","Good survey",37,"BI2A00034","maybe yes",1,5900,"india"
"470","pain","A14J86Y1L3RCQ0","college_assocDegree","yes_only","male",35,"christianity_catholic","Good survey",38,"BI2A00003","definitely yes",3,4236,"india"
"471","pain","A14J86Y1L3RCQ0","college_assocDegree","yes_only","male",35,"christianity_catholic","Good survey",39,"BI2A00015","maybe no",-1,2804,"india"
"472","pain","A14J86Y1L3RCQ0","college_assocDegree","yes_only","male",35,"christianity_catholic","Good survey",40,"BI2A00035","maybe no",-1,3419,"india"
"473","pain","A14J86Y1L3RCQ0","college_assocDegree","yes_only","male",35,"christianity_catholic","Good survey",41,"BI2A00010","probably no",-2,2700,"india"
"474","pain","A14J86Y1L3RCQ0","college_assocDegree","yes_only","male",35,"christianity_catholic","Good survey",42,"BI2A00047","probably no",-2,3092,"india"
"475","pain","A14J86Y1L3RCQ0","college_assocDegree","yes_only","male",35,"christianity_catholic","Good survey",43,"BI2A00036","maybe yes",1,1908,"india"
"476","pain","A14J86Y1L3RCQ0","college_assocDegree","yes_only","male",35,"christianity_catholic","Good survey",44,"BI2A00037","definitely yes",3,1739,"india"
"477","pain","A14J86Y1L3RCQ0","college_assocDegree","yes_only","male",35,"christianity_catholic","Good survey",45,"BI2A00028","maybe no",-1,2372,"india"
"478","pain","A14J86Y1L3RCQ0","college_assocDegree","yes_only","male",35,"christianity_catholic","Good survey",46,"BI2A00039","definitely yes",3,2628,"india"
"479","pain","A14J86Y1L3RCQ0","college_assocDegree","yes_only","male",35,"christianity_catholic","Good survey",47,"BI2A00042","maybe yes",1,4606,"india"
"480","pain","A14J86Y1L3RCQ0","college_assocDegree","yes_only","male",35,"christianity_catholic","Good survey",48,"BI2A00048","probably no",-2,1749,"india"
"481","animal","A1STXCESBVVV1J","college_bachDegree","no","male",34,"hinduism","None.",1,"BI2A00025","definitely no",-3,10761,"india"
"482","animal","A1STXCESBVVV1J","college_bachDegree","no","male",34,"hinduism","None.",2,"BI2A00031","definitely no",-3,2833,"india"
"483","animal","A1STXCESBVVV1J","college_bachDegree","no","male",34,"hinduism","None.",3,"BI2A00007","definitely yes",3,5898,"india"
"484","animal","A1STXCESBVVV1J","college_bachDegree","no","male",34,"hinduism","None.",4,"BI2A00032","probably no",-2,5241,"india"
"485","animal","A1STXCESBVVV1J","college_bachDegree","no","male",34,"hinduism","None.",5,"BI2A00040","definitely no",-3,1510,"india"
"486","animal","A1STXCESBVVV1J","college_bachDegree","no","male",34,"hinduism","None.",6,"BI2A00011","definitely yes",3,1662,"india"
"487","animal","A1STXCESBVVV1J","college_bachDegree","no","male",34,"hinduism","None.",7,"BI2A00002","definitely yes",3,1526,"india"
"488","animal","A1STXCESBVVV1J","college_bachDegree","no","male",34,"hinduism","None.",8,"BI2A00039","definitely no",-3,2504,"india"
"489","animal","A1STXCESBVVV1J","college_bachDegree","no","male",34,"hinduism","None.",9,"BI2A00019","equally yes/no",0,2615,"india"
"490","animal","A1STXCESBVVV1J","college_bachDegree","no","male",34,"hinduism","None.",10,"BI2A00006","definitely yes",3,1713,"india"
"491","animal","A1STXCESBVVV1J","college_bachDegree","no","male",34,"hinduism","None.",11,"BI2A00027","definitely no",-3,1802,"india"
"492","animal","A1STXCESBVVV1J","college_bachDegree","no","male",34,"hinduism","None.",12,"BI2A00034","equally yes/no",0,4604,"india"
"493","animal","A1STXCESBVVV1J","college_bachDegree","no","male",34,"hinduism","None.",13,"BI2A00041","probably no",-2,3510,"india"
"494","animal","A1STXCESBVVV1J","college_bachDegree","no","male",34,"hinduism","None.",14,"BI2A00013","definitely yes",3,2217,"india"
"495","animal","A1STXCESBVVV1J","college_bachDegree","no","male",34,"hinduism","None.",15,"BI2A00029","equally yes/no",0,4653,"india"
"496","animal","A1STXCESBVVV1J","college_bachDegree","no","male",34,"hinduism","None.",16,"BI2A00018","equally yes/no",0,2412,"india"
"497","animal","A1STXCESBVVV1J","college_bachDegree","no","male",34,"hinduism","None.",17,"BI2A00023","maybe yes",1,5099,"india"
"498","animal","A1STXCESBVVV1J","college_bachDegree","no","male",34,"hinduism","None.",18,"BI2A00008","definitely yes",3,3133,"india"
"499","animal","A1STXCESBVVV1J","college_bachDegree","no","male",34,"hinduism","None.",19,"BI2A00003","definitely yes",3,1947,"india"
"500","animal","A1STXCESBVVV1J","college_bachDegree","no","male",34,"hinduism","None.",20,"BI2A00028","maybe no",-1,3148,"india"
"501","animal","A1STXCESBVVV1J","college_bachDegree","no","male",34,"hinduism","None.",21,"BI2A00037","maybe no",-1,2294,"india"
"502","animal","A1STXCESBVVV1J","college_bachDegree","no","male",34,"hinduism","None.",22,"BI2A00022","probably no",-2,2181,"india"
"503","animal","A1STXCESBVVV1J","college_bachDegree","no","male",34,"hinduism","None.",23,"BI2A00001","probably yes",2,2295,"india"
"504","animal","A1STXCESBVVV1J","college_bachDegree","no","male",34,"hinduism","None.",24,"BI2A00030","definitely no",-3,2970,"india"
"505","animal","A1STXCESBVVV1J","college_bachDegree","no","male",34,"hinduism","None.",25,"BI2A00047","definitely no",-3,2202,"india"
"506","animal","A1STXCESBVVV1J","college_bachDegree","no","male",34,"hinduism","None.",26,"BI2A00033","probably no",-2,1816,"india"
"507","animal","A1STXCESBVVV1J","college_bachDegree","no","male",34,"hinduism","None.",27,"BI2A00026","probably yes",2,1791,"india"
"508","animal","A1STXCESBVVV1J","college_bachDegree","no","male",34,"hinduism","None.",28,"BI2A00021","probably no",-2,2717,"india"
"509","animal","A1STXCESBVVV1J","college_bachDegree","no","male",34,"hinduism","None.",29,"BI2A00046","definitely no",-3,1500,"india"
"510","animal","A1STXCESBVVV1J","college_bachDegree","no","male",34,"hinduism","None.",30,"BI2A00015","definitely yes",3,2480,"india"
"511","animal","A1STXCESBVVV1J","college_bachDegree","no","male",34,"hinduism","None.",31,"BI2A00045","definitely no",-3,1345,"india"
"512","animal","A1STXCESBVVV1J","college_bachDegree","no","male",34,"hinduism","None.",32,"BI2A00036","definitely no",-3,1652,"india"
"513","animal","A1STXCESBVVV1J","college_bachDegree","no","male",34,"hinduism","None.",33,"BI2A00048","definitely no",-3,1655,"india"
"514","animal","A1STXCESBVVV1J","college_bachDegree","no","male",34,"hinduism","None.",34,"BI2A00042","definitely no",-3,2675,"india"
"515","animal","A1STXCESBVVV1J","college_bachDegree","no","male",34,"hinduism","None.",35,"BI2A00009","definitely yes",3,1648,"india"
"516","animal","A1STXCESBVVV1J","college_bachDegree","no","male",34,"hinduism","None.",36,"BI2A00005","definitely yes",3,1705,"india"
"517","animal","A1STXCESBVVV1J","college_bachDegree","no","male",34,"hinduism","None.",37,"BI2A00016","equally yes/no",0,3752,"india"
"518","animal","A1STXCESBVVV1J","college_bachDegree","no","male",34,"hinduism","None.",38,"BI2A00014","equally yes/no",0,2612,"india"
"519","animal","A1STXCESBVVV1J","college_bachDegree","no","male",34,"hinduism","None.",39,"BI2A00038","definitely no",-3,1847,"india"
"520","animal","A1STXCESBVVV1J","college_bachDegree","no","male",34,"hinduism","None.",40,"BI2A00010","equally yes/no",0,3326,"india"
"521","animal","A1STXCESBVVV1J","college_bachDegree","no","male",34,"hinduism","None.",41,"BI2A00012","equally yes/no",0,3224,"india"
"522","animal","A1STXCESBVVV1J","college_bachDegree","no","male",34,"hinduism","None.",42,"BI2A00043","definitely no",-3,1414,"india"
"523","animal","A1STXCESBVVV1J","college_bachDegree","no","male",34,"hinduism","None.",43,"BI2A00035","definitely no",-3,1789,"india"
"524","animal","A1STXCESBVVV1J","college_bachDegree","no","male",34,"hinduism","None.",44,"BI2A00044","definitely no",-3,1221,"india"
"525","animal","A1STXCESBVVV1J","college_bachDegree","no","male",34,"hinduism","None.",45,"BI2A00020","equally yes/no",0,4368,"india"
"526","animal","A1STXCESBVVV1J","college_bachDegree","no","male",34,"hinduism","None.",46,"BI2A00004","probably yes",2,1814,"india"
"527","animal","A1STXCESBVVV1J","college_bachDegree","no","male",34,"hinduism","None.",47,"BI2A00017","probably no",-2,2746,"india"
"528","animal","A1STXCESBVVV1J","college_bachDegree","no","male",34,"hinduism","None.",48,"BI2A00024","definitely yes",3,3650,"india"
"529","happy","ASE6XJ2W05HQN","grad_degree","no","female",30,"christianity_catholic","",1,"BI2A00010","definitely no",-3,8111,"india"
"530","happy","ASE6XJ2W05HQN","grad_degree","no","female",30,"christianity_catholic","",2,"BI2A00044","equally yes/no",0,55531,"india"
"531","happy","ASE6XJ2W05HQN","grad_degree","no","female",30,"christianity_catholic","",3,"BI2A00039","maybe no",-1,3136,"india"
"532","happy","ASE6XJ2W05HQN","grad_degree","no","female",30,"christianity_catholic","",4,"BI2A00008","definitely no",-3,14540,"india"
"533","happy","ASE6XJ2W05HQN","grad_degree","no","female",30,"christianity_catholic","",5,"BI2A00011","definitely no",-3,2431,"india"
"534","happy","ASE6XJ2W05HQN","grad_degree","no","female",30,"christianity_catholic","",6,"BI2A00041","maybe no",-1,4248,"india"
"535","happy","ASE6XJ2W05HQN","grad_degree","no","female",30,"christianity_catholic","",7,"BI2A00036","maybe yes",1,3645,"india"
"536","happy","ASE6XJ2W05HQN","grad_degree","no","female",30,"christianity_catholic","",8,"BI2A00048","maybe yes",1,1723,"india"
"537","happy","ASE6XJ2W05HQN","grad_degree","no","female",30,"christianity_catholic","",9,"BI2A00004","equally yes/no",0,2082,"india"
"538","happy","ASE6XJ2W05HQN","grad_degree","no","female",30,"christianity_catholic","",10,"BI2A00030","maybe yes",1,1865,"india"
"539","happy","ASE6XJ2W05HQN","grad_degree","no","female",30,"christianity_catholic","",11,"BI2A00031","equally yes/no",0,2109,"india"
"540","happy","ASE6XJ2W05HQN","grad_degree","no","female",30,"christianity_catholic","",12,"BI2A00003","probably no",-2,2359,"india"
"541","happy","ASE6XJ2W05HQN","grad_degree","no","female",30,"christianity_catholic","",13,"BI2A00035","probably yes",2,1531,"india"
"542","happy","ASE6XJ2W05HQN","grad_degree","no","female",30,"christianity_catholic","",14,"BI2A00016","equally yes/no",0,2037,"india"
"543","happy","ASE6XJ2W05HQN","grad_degree","no","female",30,"christianity_catholic","",15,"BI2A00012","equally yes/no",0,1644,"india"
"544","happy","ASE6XJ2W05HQN","grad_degree","no","female",30,"christianity_catholic","",16,"BI2A00046","probably yes",2,2587,"india"
"545","happy","ASE6XJ2W05HQN","grad_degree","no","female",30,"christianity_catholic","",17,"BI2A00026","equally yes/no",0,2175,"india"
"546","happy","ASE6XJ2W05HQN","grad_degree","no","female",30,"christianity_catholic","",18,"BI2A00028","maybe no",-1,1792,"india"
"547","happy","ASE6XJ2W05HQN","grad_degree","no","female",30,"christianity_catholic","",19,"BI2A00020","maybe no",-1,1877,"india"
"548","happy","ASE6XJ2W05HQN","grad_degree","no","female",30,"christianity_catholic","",20,"BI2A00019","maybe no",-1,1264,"india"
"549","happy","ASE6XJ2W05HQN","grad_degree","no","female",30,"christianity_catholic","",21,"BI2A00001","maybe no",-1,1313,"india"
"550","happy","ASE6XJ2W05HQN","grad_degree","no","female",30,"christianity_catholic","",22,"BI2A00006","maybe no",-1,2737,"india"
"551","happy","ASE6XJ2W05HQN","grad_degree","no","female",30,"christianity_catholic","",23,"BI2A00043","probably yes",2,1981,"india"
"552","happy","ASE6XJ2W05HQN","grad_degree","no","female",30,"christianity_catholic","",24,"BI2A00032","probably no",-2,2046,"india"
"553","happy","ASE6XJ2W05HQN","grad_degree","no","female",30,"christianity_catholic","",25,"BI2A00022","probably no",-2,1372,"india"
"554","happy","ASE6XJ2W05HQN","grad_degree","no","female",30,"christianity_catholic","",26,"BI2A00025","probably no",-2,1154,"india"
"555","happy","ASE6XJ2W05HQN","grad_degree","no","female",30,"christianity_catholic","",27,"BI2A00017","probably no",-2,1121,"india"
"556","happy","ASE6XJ2W05HQN","grad_degree","no","female",30,"christianity_catholic","",28,"BI2A00034","probably no",-2,719,"india"
"557","happy","ASE6XJ2W05HQN","grad_degree","no","female",30,"christianity_catholic","",29,"BI2A00002","probably no",-2,1014,"india"
"558","happy","ASE6XJ2W05HQN","grad_degree","no","female",30,"christianity_catholic","",30,"BI2A00033","probably no",-2,1192,"india"
"559","happy","ASE6XJ2W05HQN","grad_degree","no","female",30,"christianity_catholic","",31,"BI2A00045","probably yes",2,1209,"india"
"560","happy","ASE6XJ2W05HQN","grad_degree","no","female",30,"christianity_catholic","",32,"BI2A00047","probably yes",2,1143,"india"
"561","happy","ASE6XJ2W05HQN","grad_degree","no","female",30,"christianity_catholic","",33,"BI2A00023","probably no",-2,1934,"india"
"562","happy","ASE6XJ2W05HQN","grad_degree","no","female",30,"christianity_catholic","",34,"BI2A00009","probably no",-2,2035,"india"
"563","happy","ASE6XJ2W05HQN","grad_degree","no","female",30,"christianity_catholic","",35,"BI2A00018","probably no",-2,1342,"india"
"564","happy","ASE6XJ2W05HQN","grad_degree","no","female",30,"christianity_catholic","",36,"BI2A00029","probably no",-2,1506,"india"
"565","happy","ASE6XJ2W05HQN","grad_degree","no","female",30,"christianity_catholic","",37,"BI2A00005","probably no",-2,916,"india"
"566","happy","ASE6XJ2W05HQN","grad_degree","no","female",30,"christianity_catholic","",38,"BI2A00038","probably no",-2,1063,"india"
"567","happy","ASE6XJ2W05HQN","grad_degree","no","female",30,"christianity_catholic","",39,"BI2A00037","probably no",-2,872,"india"
"568","happy","ASE6XJ2W05HQN","grad_degree","no","female",30,"christianity_catholic","",40,"BI2A00024","probably no",-2,1273,"india"
"569","happy","ASE6XJ2W05HQN","grad_degree","no","female",30,"christianity_catholic","",41,"BI2A00042","probably no",-2,1024,"india"
"570","happy","ASE6XJ2W05HQN","grad_degree","no","female",30,"christianity_catholic","",42,"BI2A00007","probably no",-2,1653,"india"
"571","happy","ASE6XJ2W05HQN","grad_degree","no","female",30,"christianity_catholic","",43,"BI2A00015","probably no",-2,1109,"india"
"572","happy","ASE6XJ2W05HQN","grad_degree","no","female",30,"christianity_catholic","",44,"BI2A00040","probably no",-2,2006,"india"
"573","happy","ASE6XJ2W05HQN","grad_degree","no","female",30,"christianity_catholic","",45,"BI2A00013","probably yes",2,2893,"india"
"574","happy","ASE6XJ2W05HQN","grad_degree","no","female",30,"christianity_catholic","",46,"BI2A00014","equally yes/no",0,2715,"india"
"575","happy","ASE6XJ2W05HQN","grad_degree","no","female",30,"christianity_catholic","",47,"BI2A00027","probably yes",2,2092,"india"
"576","happy","ASE6XJ2W05HQN","grad_degree","no","female",30,"christianity_catholic","",48,"BI2A00021","maybe yes",1,1863,"india"
"577","pain","A39ONIMT6RT6S2","grad_some","yes_only","male",28,"hinduism","It was very interesting and to complete nice",1,"BI2A00006","probably yes",2,2903,"india"
"578","pain","A39ONIMT6RT6S2","grad_some","yes_only","male",28,"hinduism","It was very interesting and to complete nice",2,"BI2A00028","maybe yes",1,5328,"india"
"579","pain","A39ONIMT6RT6S2","grad_some","yes_only","male",28,"hinduism","It was very interesting and to complete nice",3,"BI2A00030","maybe no",-1,1835,"india"
"580","pain","A39ONIMT6RT6S2","grad_some","yes_only","male",28,"hinduism","It was very interesting and to complete nice",4,"BI2A00025","probably no",-2,1830,"india"
"581","pain","A39ONIMT6RT6S2","grad_some","yes_only","male",28,"hinduism","It was very interesting and to complete nice",5,"BI2A00037","maybe no",-1,1733,"india"
"582","pain","A39ONIMT6RT6S2","grad_some","yes_only","male",28,"hinduism","It was very interesting and to complete nice",6,"BI2A00021","equally yes/no",0,750,"india"
"583","pain","A39ONIMT6RT6S2","grad_some","yes_only","male",28,"hinduism","It was very interesting and to complete nice",7,"BI2A00039","maybe yes",1,1798,"india"
"584","pain","A39ONIMT6RT6S2","grad_some","yes_only","male",28,"hinduism","It was very interesting and to complete nice",8,"BI2A00031","probably yes",2,978,"india"
"585","pain","A39ONIMT6RT6S2","grad_some","yes_only","male",28,"hinduism","It was very interesting and to complete nice",9,"BI2A00048","probably yes",2,826,"india"
"586","pain","A39ONIMT6RT6S2","grad_some","yes_only","male",28,"hinduism","It was very interesting and to complete nice",10,"BI2A00040","maybe yes",1,958,"india"
"587","pain","A39ONIMT6RT6S2","grad_some","yes_only","male",28,"hinduism","It was very interesting and to complete nice",11,"BI2A00007","equally yes/no",0,1237,"india"
"588","pain","A39ONIMT6RT6S2","grad_some","yes_only","male",28,"hinduism","It was very interesting and to complete nice",12,"BI2A00033","maybe yes",1,710,"india"
"589","pain","A39ONIMT6RT6S2","grad_some","yes_only","male",28,"hinduism","It was very interesting and to complete nice",13,"BI2A00018","probably yes",2,1001,"india"
"590","pain","A39ONIMT6RT6S2","grad_some","yes_only","male",28,"hinduism","It was very interesting and to complete nice",14,"BI2A00026","probably no",-2,1185,"india"
"591","pain","A39ONIMT6RT6S2","grad_some","yes_only","male",28,"hinduism","It was very interesting and to complete nice",15,"BI2A00016","definitely no",-3,1227,"india"
"592","pain","A39ONIMT6RT6S2","grad_some","yes_only","male",28,"hinduism","It was very interesting and to complete nice",16,"BI2A00008","probably yes",2,2685,"india"
"593","pain","A39ONIMT6RT6S2","grad_some","yes_only","male",28,"hinduism","It was very interesting and to complete nice",17,"BI2A00032","definitely yes",3,1319,"india"
"594","pain","A39ONIMT6RT6S2","grad_some","yes_only","male",28,"hinduism","It was very interesting and to complete nice",18,"BI2A00001","probably yes",2,805,"india"
"595","pain","A39ONIMT6RT6S2","grad_some","yes_only","male",28,"hinduism","It was very interesting and to complete nice",19,"BI2A00046","maybe yes",1,1326,"india"
"596","pain","A39ONIMT6RT6S2","grad_some","yes_only","male",28,"hinduism","It was very interesting and to complete nice",20,"BI2A00027","probably yes",2,1510,"india"
"597","pain","A39ONIMT6RT6S2","grad_some","yes_only","male",28,"hinduism","It was very interesting and to complete nice",21,"BI2A00002","maybe yes",1,943,"india"
"598","pain","A39ONIMT6RT6S2","grad_some","yes_only","male",28,"hinduism","It was very interesting and to complete nice",22,"BI2A00041","definitely yes",3,887,"india"
"599","pain","A39ONIMT6RT6S2","grad_some","yes_only","male",28,"hinduism","It was very interesting and to complete nice",23,"BI2A00014","probably yes",2,533,"india"
"600","pain","A39ONIMT6RT6S2","grad_some","yes_only","male",28,"hinduism","It was very interesting and to complete nice",24,"BI2A00013","maybe yes",1,974,"india"
"601","pain","A39ONIMT6RT6S2","grad_some","yes_only","male",28,"hinduism","It was very interesting and to complete nice",25,"BI2A00045","equally yes/no",0,582,"india"
"602","pain","A39ONIMT6RT6S2","grad_some","yes_only","male",28,"hinduism","It was very interesting and to complete nice",26,"BI2A00042","maybe yes",1,901,"india"
"603","pain","A39ONIMT6RT6S2","grad_some","yes_only","male",28,"hinduism","It was very interesting and to complete nice",27,"BI2A00012","probably yes",2,991,"india"
"604","pain","A39ONIMT6RT6S2","grad_some","yes_only","male",28,"hinduism","It was very interesting and to complete nice",28,"BI2A00004","definitely yes",3,1780,"india"
"605","pain","A39ONIMT6RT6S2","grad_some","yes_only","male",28,"hinduism","It was very interesting and to complete nice",29,"BI2A00020","probably yes",2,7166,"india"
"606","pain","A39ONIMT6RT6S2","grad_some","yes_only","male",28,"hinduism","It was very interesting and to complete nice",30,"BI2A00017","maybe yes",1,1101,"india"
"607","pain","A39ONIMT6RT6S2","grad_some","yes_only","male",28,"hinduism","It was very interesting and to complete nice",31,"BI2A00036","definitely yes",3,2247,"india"
"608","pain","A39ONIMT6RT6S2","grad_some","yes_only","male",28,"hinduism","It was very interesting and to complete nice",32,"BI2A00022","maybe yes",1,1189,"india"
"609","pain","A39ONIMT6RT6S2","grad_some","yes_only","male",28,"hinduism","It was very interesting and to complete nice",33,"BI2A00023","probably yes",2,1159,"india"
"610","pain","A39ONIMT6RT6S2","grad_some","yes_only","male",28,"hinduism","It was very interesting and to complete nice",34,"BI2A00034","maybe yes",1,1110,"india"
"611","pain","A39ONIMT6RT6S2","grad_some","yes_only","male",28,"hinduism","It was very interesting and to complete nice",35,"BI2A00003","probably yes",2,2046,"india"
"612","pain","A39ONIMT6RT6S2","grad_some","yes_only","male",28,"hinduism","It was very interesting and to complete nice",36,"BI2A00038","definitely yes",3,1726,"india"
"613","pain","A39ONIMT6RT6S2","grad_some","yes_only","male",28,"hinduism","It was very interesting and to complete nice",37,"BI2A00047","maybe yes",1,1798,"india"
"614","pain","A39ONIMT6RT6S2","grad_some","yes_only","male",28,"hinduism","It was very interesting and to complete nice",38,"BI2A00024","probably yes",2,1230,"india"
"615","pain","A39ONIMT6RT6S2","grad_some","yes_only","male",28,"hinduism","It was very interesting and to complete nice",39,"BI2A00011","definitely yes",3,1373,"india"
"616","pain","A39ONIMT6RT6S2","grad_some","yes_only","male",28,"hinduism","It was very interesting and to complete nice",40,"BI2A00043","probably no",-2,5648,"india"
"617","pain","A39ONIMT6RT6S2","grad_some","yes_only","male",28,"hinduism","It was very interesting and to complete nice",41,"BI2A00009","maybe no",-1,1037,"india"
"618","pain","A39ONIMT6RT6S2","grad_some","yes_only","male",28,"hinduism","It was very interesting and to complete nice",42,"BI2A00029","probably no",-2,702,"india"
"619","pain","A39ONIMT6RT6S2","grad_some","yes_only","male",28,"hinduism","It was very interesting and to complete nice",43,"BI2A00015","definitely no",-3,1182,"india"
"620","pain","A39ONIMT6RT6S2","grad_some","yes_only","male",28,"hinduism","It was very interesting and to complete nice",44,"BI2A00035","maybe no",-1,1071,"india"
"621","pain","A39ONIMT6RT6S2","grad_some","yes_only","male",28,"hinduism","It was very interesting and to complete nice",45,"BI2A00019","probably no",-2,1310,"india"
"622","pain","A39ONIMT6RT6S2","grad_some","yes_only","male",28,"hinduism","It was very interesting and to complete nice",46,"BI2A00044","maybe no",-1,1406,"india"
"623","pain","A39ONIMT6RT6S2","grad_some","yes_only","male",28,"hinduism","It was very interesting and to complete nice",47,"BI2A00005","equally yes/no",0,1437,"india"
"624","pain","A39ONIMT6RT6S2","grad_some","yes_only","male",28,"hinduism","It was very interesting and to complete nice",48,"BI2A00010","equally yes/no",0,1358,"india"
"625","hungry","A3IV8AFLU0E94K","college_bachDegree","no","male",28,"hinduism","nice and very easy task.. please give me more task like this.",1,"BI2A00034","definitely no",-3,14925,"india"
"626","hungry","A3IV8AFLU0E94K","college_bachDegree","no","male",28,"hinduism","nice and very easy task.. please give me more task like this.",2,"BI2A00027","definitely no",-3,5851,"india"
"627","hungry","A3IV8AFLU0E94K","college_bachDegree","no","male",28,"hinduism","nice and very easy task.. please give me more task like this.",3,"BI2A00048","definitely no",-3,3715,"india"
"628","hungry","A3IV8AFLU0E94K","college_bachDegree","no","male",28,"hinduism","nice and very easy task.. please give me more task like this.",4,"BI2A00047","probably no",-2,5972,"india"
"629","hungry","A3IV8AFLU0E94K","college_bachDegree","no","male",28,"hinduism","nice and very easy task.. please give me more task like this.",5,"BI2A00040","probably no",-2,4061,"india"
"630","hungry","A3IV8AFLU0E94K","college_bachDegree","no","male",28,"hinduism","nice and very easy task.. please give me more task like this.",6,"BI2A00036","maybe yes",1,4284,"india"
"631","hungry","A3IV8AFLU0E94K","college_bachDegree","no","male",28,"hinduism","nice and very easy task.. please give me more task like this.",7,"BI2A00041","probably no",-2,2876,"india"
"632","hungry","A3IV8AFLU0E94K","college_bachDegree","no","male",28,"hinduism","nice and very easy task.. please give me more task like this.",8,"BI2A00023","maybe yes",1,5774,"india"
"633","hungry","A3IV8AFLU0E94K","college_bachDegree","no","male",28,"hinduism","nice and very easy task.. please give me more task like this.",9,"BI2A00008","definitely no",-3,2309,"india"
"634","hungry","A3IV8AFLU0E94K","college_bachDegree","no","male",28,"hinduism","nice and very easy task.. please give me more task like this.",10,"BI2A00022","definitely no",-3,1814,"india"
"635","hungry","A3IV8AFLU0E94K","college_bachDegree","no","male",28,"hinduism","nice and very easy task.. please give me more task like this.",11,"BI2A00042","definitely no",-3,2482,"india"
"636","hungry","A3IV8AFLU0E94K","college_bachDegree","no","male",28,"hinduism","nice and very easy task.. please give me more task like this.",12,"BI2A00028","definitely no",-3,2212,"india"
