"","condition","worker_id","education","english_native","ethnicity","gender","age","religion","comments","trialNum","swatch","response","responseCoded","rt","country"
"1","animal","AY3WQH3I3HT4D","college_some",NA,"white","male",23,"none","",1,"BI2A00016","probably yes",2,5447,"india"
"2","animal","AY3WQH3I3HT4D","college_some",NA,"white","male",23,"none","",2,"BI2A00027","definitely no",-3,3820,"india"
"3","animal","AY3WQH3I3HT4D","college_some",NA,"white","male",23,"none","",3,"BI2A00003","definitely yes",3,1470,"india"
"4","animal","AY3WQH3I3HT4D","college_some",NA,"white","male",23,"none","",4,"BI2A00047","definitely no",-3,2647,"india"
"5","animal","AY3WQH3I3HT4D","college_some",NA,"white","male",23,"none","",5,"BI2A00041","definitely no",-3,1203,"india"
"6","animal","AY3WQH3I3HT4D","college_some",NA,"white","male",23,"none","",6,"BI2A00037","definitely no",-3,3663,"india"
"7","animal","AY3WQH3I3HT4D","college_some",NA,"white","male",23,"none","",7,"BI2A00043","definitely no",-3,1534,"india"
"8","animal","AY3WQH3I3HT4D","college_some",NA,"white","male",23,"none","",8,"BI2A00019","probably yes",2,2325,"india"
"9","animal","AY3WQH3I3HT4D","college_some",NA,"white","male",23,"none","",9,"BI2A00010","definitely yes",3,3425,"india"
"10","animal","AY3WQH3I3HT4D","college_some",NA,"white","male",23,"none","",10,"BI2A00006","definitely yes",3,1185,"india"
"11","animal","AY3WQH3I3HT4D","college_some",NA,"white","male",23,"none","",11,"BI2A00046","definitely no",-3,1467,"india"
"12","animal","AY3WQH3I3HT4D","college_some",NA,"white","male",23,"none","",12,"BI2A00015","probably yes",2,3572,"india"
"13","animal","AY3WQH3I3HT4D","college_some",NA,"white","male",23,"none","",13,"BI2A00039","definitely no",-3,1372,"india"
"14","animal","AY3WQH3I3HT4D","college_some",NA,"white","male",23,"none","",14,"BI2A00035","definitely no",-3,940,"india"
"15","animal","AY3WQH3I3HT4D","college_some",NA,"white","male",23,"none","",15,"BI2A00023","probably no",-2,3157,"india"
"16","animal","AY3WQH3I3HT4D","college_some",NA,"white","male",23,"none","",16,"BI2A00025","definitely no",-3,1709,"india"
"17","animal","AY3WQH3I3HT4D","college_some",NA,"white","male",23,"none","",17,"BI2A00005","definitely yes",3,1818,"india"
"18","animal","AY3WQH3I3HT4D","college_some",NA,"white","male",23,"none","",18,"BI2A00020","probably no",-2,3656,"india"
"19","animal","AY3WQH3I3HT4D","college_some",NA,"white","male",23,"none","",19,"BI2A00045","definitely no",-3,1219,"india"
"20","animal","AY3WQH3I3HT4D","college_some",NA,"white","male",23,"none","",20,"BI2A00031","definitely no",-3,1508,"india"
"21","animal","AY3WQH3I3HT4D","college_some",NA,"white","male",23,"none","",21,"BI2A00014","equally yes/no",0,2301,"india"
"22","animal","AY3WQH3I3HT4D","college_some",NA,"white","male",23,"none","",22,"BI2A00022","maybe no",-1,2586,"india"
"23","animal","AY3WQH3I3HT4D","college_some",NA,"white","male",23,"none","",23,"BI2A00032","probably no",-2,2282,"india"
"24","animal","AY3WQH3I3HT4D","college_some",NA,"white","male",23,"none","",24,"BI2A00033","definitely no",-3,1284,"india"
"25","animal","AY3WQH3I3HT4D","college_some",NA,"white","male",23,"none","",25,"BI2A00012","probably yes",2,3235,"india"
"26","animal","AY3WQH3I3HT4D","college_some",NA,"white","male",23,"none","",26,"BI2A00002","definitely yes",3,1381,"india"
"27","animal","AY3WQH3I3HT4D","college_some",NA,"white","male",23,"none","",27,"BI2A00040","definitely no",-3,1315,"india"
"28","animal","AY3WQH3I3HT4D","college_some",NA,"white","male",23,"none","",28,"BI2A00013","probably yes",2,8685,"india"
"29","animal","AY3WQH3I3HT4D","college_some",NA,"white","male",23,"none","",29,"BI2A00029","definitely no",-3,1683,"india"
"30","animal","AY3WQH3I3HT4D","college_some",NA,"white","male",23,"none","",30,"BI2A00034","definitely no",-3,2108,"india"
"31","animal","AY3WQH3I3HT4D","college_some",NA,"white","male",23,"none","",31,"BI2A00008","definitely yes",3,4706,"india"
"32","animal","AY3WQH3I3HT4D","college_some",NA,"white","male",23,"none","",32,"BI2A00004","definitely yes",3,1370,"india"
"33","animal","AY3WQH3I3HT4D","college_some",NA,"white","male",23,"none","",33,"BI2A00048","definitely no",-3,1390,"india"
"34","animal","AY3WQH3I3HT4D","college_some",NA,"white","male",23,"none","",34,"BI2A00030","definitely no",-3,1163,"india"
"35","animal","AY3WQH3I3HT4D","college_some",NA,"white","male",23,"none","",35,"BI2A00024","definitely yes",3,3493,"india"
"36","animal","AY3WQH3I3HT4D","college_some",NA,"white","male",23,"none","",36,"BI2A00036","definitely no",-3,1420,"india"
"37","animal","AY3WQH3I3HT4D","college_some",NA,"white","male",23,"none","",37,"BI2A00028","definitely no",-3,2527,"india"
"38","animal","AY3WQH3I3HT4D","college_some",NA,"white","male",23,"none","",38,"BI2A00038","definitely no",-3,1084,"india"
"39","animal","AY3WQH3I3HT4D","college_some",NA,"white","male",23,"none","",39,"BI2A00009","definitely yes",3,1719,"india"
"40","animal","AY3WQH3I3HT4D","college_some",NA,"white","male",23,"none","",40,"BI2A00001","definitely yes",3,1307,"india"
"41","animal","AY3WQH3I3HT4D","college_some",NA,"white","male",23,"none","",41,"BI2A00017","definitely no",-3,1696,"india"
"42","animal","AY3WQH3I3HT4D","college_some",NA,"white","male",23,"none","",42,"BI2A00011","definitely yes",3,3346,"india"
"43","animal","AY3WQH3I3HT4D","college_some",NA,"white","male",23,"none","",43,"BI2A00018","maybe yes",1,2989,"india"
"44","animal","AY3WQH3I3HT4D","college_some",NA,"white","male",23,"none","",44,"BI2A00026","definitely yes",3,1650,"india"
"45","animal","AY3WQH3I3HT4D","college_some",NA,"white","male",23,"none","",45,"BI2A00042","definitely no",-3,1860,"india"
"46","animal","AY3WQH3I3HT4D","college_some",NA,"white","male",23,"none","",46,"BI2A00044","definitely no",-3,1403,"india"
"47","animal","AY3WQH3I3HT4D","college_some",NA,"white","male",23,"none","",47,"BI2A00021","definitely no",-3,1007,"india"
"48","animal","AY3WQH3I3HT4D","college_some",NA,"white","male",23,"none","",48,"BI2A00007","definitely yes",3,1384,"india"
"49","animal","A22ZVWOXT5JNNU","college_some",NA,"white","female",21,"none","",1,"BI2A00039","definitely no",-3,2733,"india"
"50","animal","A22ZVWOXT5JNNU","college_some",NA,"white","female",21,"none","",2,"BI2A00025","maybe no",-1,3965,"india"
"51","animal","A22ZVWOXT5JNNU","college_some",NA,"white","female",21,"none","",3,"BI2A00015","definitely yes",3,1868,"india"
"52","animal","A22ZVWOXT5JNNU","college_some",NA,"white","female",21,"none","",4,"BI2A00030","probably no",-2,1855,"india"
"53","animal","A22ZVWOXT5JNNU","college_some",NA,"white","female",21,"none","",5,"BI2A00003","definitely yes",3,1583,"india"
"54","animal","A22ZVWOXT5JNNU","college_some",NA,"white","female",21,"none","",6,"BI2A00002","probably yes",2,1767,"india"
"55","animal","A22ZVWOXT5JNNU","college_some",NA,"white","female",21,"none","",7,"BI2A00033","definitely no",-3,1895,"india"
"56","animal","A22ZVWOXT5JNNU","college_some",NA,"white","female",21,"none","",8,"BI2A00023","definitely no",-3,1844,"india"
"57","animal","A22ZVWOXT5JNNU","college_some",NA,"white","female",21,"none","",9,"BI2A00035","definitely no",-3,1438,"india"
"58","animal","A22ZVWOXT5JNNU","college_some",NA,"white","female",21,"none","",10,"BI2A00029","equally yes/no",0,2426,"india"
"59","animal","A22ZVWOXT5JNNU","college_some",NA,"white","female",21,"none","",11,"BI2A00009","probably yes",2,1636,"india"
"60","animal","A22ZVWOXT5JNNU","college_some",NA,"white","female",21,"none","",12,"BI2A00010","maybe yes",1,1796,"india"
"61","animal","A22ZVWOXT5JNNU","college_some",NA,"white","female",21,"none","",13,"BI2A00036","definitely no",-3,1622,"india"
"62","animal","A22ZVWOXT5JNNU","college_some",NA,"white","female",21,"none","",14,"BI2A00017","probably no",-2,1749,"india"
"63","animal","A22ZVWOXT5JNNU","college_some",NA,"white","female",21,"none","",15,"BI2A00005","probably yes",2,1915,"india"
"64","animal","A22ZVWOXT5JNNU","college_some",NA,"white","female",21,"none","",16,"BI2A00022","maybe no",-1,2212,"india"
"65","animal","A22ZVWOXT5JNNU","college_some",NA,"white","female",21,"none","",17,"BI2A00024","probably no",-2,2728,"india"
"66","animal","A22ZVWOXT5JNNU","college_some",NA,"white","female",21,"none","",18,"BI2A00043","definitely no",-3,1912,"india"
"67","animal","A22ZVWOXT5JNNU","college_some",NA,"white","female",21,"none","",19,"BI2A00032","definitely no",-3,2284,"india"
"68","animal","A22ZVWOXT5JNNU","college_some",NA,"white","female",21,"none","",20,"BI2A00047","definitely no",-3,1303,"india"
"69","animal","A22ZVWOXT5JNNU","college_some",NA,"white","female",21,"none","",21,"BI2A00048","definitely no",-3,1253,"india"
"70","animal","A22ZVWOXT5JNNU","college_some",NA,"white","female",21,"none","",22,"BI2A00046","definitely no",-3,2210,"india"
"71","animal","A22ZVWOXT5JNNU","college_some",NA,"white","female",21,"none","",23,"BI2A00041","definitely no",-3,1821,"india"
"72","animal","A22ZVWOXT5JNNU","college_some",NA,"white","female",21,"none","",24,"BI2A00014","maybe yes",1,1726,"india"
"73","animal","A22ZVWOXT5JNNU","college_some",NA,"white","female",21,"none","",25,"BI2A00038","definitely no",-3,1349,"india"
"74","animal","A22ZVWOXT5JNNU","college_some",NA,"white","female",21,"none","",26,"BI2A00016","equally yes/no",0,1851,"india"
"75","animal","A22ZVWOXT5JNNU","college_some",NA,"white","female",21,"none","",27,"BI2A00001","equally yes/no",0,1464,"india"
"76","animal","A22ZVWOXT5JNNU","college_some",NA,"white","female",21,"none","",28,"BI2A00019","maybe yes",1,2065,"india"
"77","animal","A22ZVWOXT5JNNU","college_some",NA,"white","female",21,"none","",29,"BI2A00026","definitely no",-3,2272,"india"
"78","animal","A22ZVWOXT5JNNU","college_some",NA,"white","female",21,"none","",30,"BI2A00045","definitely no",-3,1316,"india"
"79","animal","A22ZVWOXT5JNNU","college_some",NA,"white","female",21,"none","",31,"BI2A00040","definitely no",-3,1934,"india"
"80","animal","A22ZVWOXT5JNNU","college_some",NA,"white","female",21,"none","",32,"BI2A00011","probably yes",2,1910,"india"
"81","animal","A22ZVWOXT5JNNU","college_some",NA,"white","female",21,"none","",33,"BI2A00018","definitely no",-3,1412,"india"
"82","animal","A22ZVWOXT5JNNU","college_some",NA,"white","female",21,"none","",34,"BI2A00006","definitely yes",3,1535,"india"
"83","animal","A22ZVWOXT5JNNU","college_some",NA,"white","female",21,"none","",35,"BI2A00027","definitely no",-3,1430,"india"
"84","animal","A22ZVWOXT5JNNU","college_some",NA,"white","female",21,"none","",36,"BI2A00008","definitely yes",3,1439,"india"
"85","animal","A22ZVWOXT5JNNU","college_some",NA,"white","female",21,"none","",37,"BI2A00028","probably yes",2,2028,"india"
"86","animal","A22ZVWOXT5JNNU","college_some",NA,"white","female",21,"none","",38,"BI2A00042","definitely no",-3,1871,"india"
"87","animal","A22ZVWOXT5JNNU","college_some",NA,"white","female",21,"none","",39,"BI2A00021","definitely no",-3,1351,"india"
"88","animal","A22ZVWOXT5JNNU","college_some",NA,"white","female",21,"none","",40,"BI2A00044","definitely no",-3,1311,"india"
"89","animal","A22ZVWOXT5JNNU","college_some",NA,"white","female",21,"none","",41,"BI2A00034","definitely no",-3,1712,"india"
"90","animal","A22ZVWOXT5JNNU","college_some",NA,"white","female",21,"none","",42,"BI2A00007","definitely yes",3,1422,"india"
"91","animal","A22ZVWOXT5JNNU","college_some",NA,"white","female",21,"none","",43,"BI2A00037","definitely no",-3,1495,"india"
"92","animal","A22ZVWOXT5JNNU","college_some",NA,"white","female",21,"none","",44,"BI2A00004","probably yes",2,1519,"india"
"93","animal","A22ZVWOXT5JNNU","college_some",NA,"white","female",21,"none","",45,"BI2A00020","maybe yes",1,1672,"india"
"94","animal","A22ZVWOXT5JNNU","college_some",NA,"white","female",21,"none","",46,"BI2A00013","maybe yes",1,1496,"india"
"95","animal","A22ZVWOXT5JNNU","college_some",NA,"white","female",21,"none","",47,"BI2A00031","definitely no",-3,1399,"india"
"96","animal","A22ZVWOXT5JNNU","college_some",NA,"white","female",21,"none","",48,"BI2A00012","definitely no",-3,1240,"india"
"97","animal","A2VQ1WGHLLLNJ1","hs_diploma",NA,"white","male",24,"none","THANK YOU :)",1,"BI2A00020","equally yes/no",0,11192,"india"
"98","animal","A2VQ1WGHLLLNJ1","hs_diploma",NA,"white","male",24,"none","THANK YOU :)",2,"BI2A00027","maybe no",-1,1420,"india"
"99","animal","A2VQ1WGHLLLNJ1","hs_diploma",NA,"white","male",24,"none","THANK YOU :)",3,"BI2A00035","definitely no",-3,2133,"india"
"100","animal","A2VQ1WGHLLLNJ1","hs_diploma",NA,"white","male",24,"none","THANK YOU :)",4,"BI2A00028","maybe yes",1,2078,"india"
"101","animal","A2VQ1WGHLLLNJ1","hs_diploma",NA,"white","male",24,"none","THANK YOU :)",5,"BI2A00022","maybe yes",1,919,"india"
"102","animal","A2VQ1WGHLLLNJ1","hs_diploma",NA,"white","male",24,"none","THANK YOU :)",6,"BI2A00009","maybe yes",1,1413,"india"
"103","animal","A2VQ1WGHLLLNJ1","hs_diploma",NA,"white","male",24,"none","THANK YOU :)",7,"BI2A00017","maybe no",-1,1899,"india"
"104","animal","A2VQ1WGHLLLNJ1","hs_diploma",NA,"white","male",24,"none","THANK YOU :)",8,"BI2A00043","definitely no",-3,2142,"india"
"105","animal","A2VQ1WGHLLLNJ1","hs_diploma",NA,"white","male",24,"none","THANK YOU :)",9,"BI2A00006","maybe yes",1,1308,"india"
"106","animal","A2VQ1WGHLLLNJ1","hs_diploma",NA,"white","male",24,"none","THANK YOU :)",10,"BI2A00024","equally yes/no",0,1036,"india"
"107","animal","A2VQ1WGHLLLNJ1","hs_diploma",NA,"white","male",24,"none","THANK YOU :)",11,"BI2A00026","maybe no",-1,1695,"india"
"108","animal","A2VQ1WGHLLLNJ1","hs_diploma",NA,"white","male",24,"none","THANK YOU :)",12,"BI2A00012","maybe yes",1,1020,"india"
"109","animal","A2VQ1WGHLLLNJ1","hs_diploma",NA,"white","male",24,"none","THANK YOU :)",13,"BI2A00003","maybe yes",1,791,"india"
"110","animal","A2VQ1WGHLLLNJ1","hs_diploma",NA,"white","male",24,"none","THANK YOU :)",14,"BI2A00045","definitely no",-3,2460,"india"
"111","animal","A2VQ1WGHLLLNJ1","hs_diploma",NA,"white","male",24,"none","THANK YOU :)",15,"BI2A00031","definitely no",-3,1378,"india"
"112","animal","A2VQ1WGHLLLNJ1","hs_diploma",NA,"white","male",24,"none","THANK YOU :)",16,"BI2A00039","definitely no",-3,1357,"india"
"113","animal","A2VQ1WGHLLLNJ1","hs_diploma",NA,"white","male",24,"none","THANK YOU :)",17,"BI2A00038","definitely no",-3,1221,"india"
"114","animal","A2VQ1WGHLLLNJ1","hs_diploma",NA,"white","male",24,"none","THANK YOU :)",18,"BI2A00040","definitely no",-3,1013,"india"
"115","animal","A2VQ1WGHLLLNJ1","hs_diploma",NA,"white","male",24,"none","THANK YOU :)",19,"BI2A00001","maybe yes",1,1784,"india"
"116","animal","A2VQ1WGHLLLNJ1","hs_diploma",NA,"white","male",24,"none","THANK YOU :)",20,"BI2A00025","definitely no",-3,2226,"india"
"117","animal","A2VQ1WGHLLLNJ1","hs_diploma",NA,"white","male",24,"none","THANK YOU :)",21,"BI2A00013","definitely yes",3,1560,"india"
"118","animal","A2VQ1WGHLLLNJ1","hs_diploma",NA,"white","male",24,"none","THANK YOU :)",22,"BI2A00007","definitely yes",3,1402,"india"
"119","animal","A2VQ1WGHLLLNJ1","hs_diploma",NA,"white","male",24,"none","THANK YOU :)",23,"BI2A00019","definitely yes",3,1981,"india"
"120","animal","A2VQ1WGHLLLNJ1","hs_diploma",NA,"white","male",24,"none","THANK YOU :)",24,"BI2A00004","maybe yes",1,1181,"india"
"121","animal","A2VQ1WGHLLLNJ1","hs_diploma",NA,"white","male",24,"none","THANK YOU :)",25,"BI2A00002","equally yes/no",0,502,"india"
"122","animal","A2VQ1WGHLLLNJ1","hs_diploma",NA,"white","male",24,"none","THANK YOU :)",26,"BI2A00034","maybe yes",1,430,"india"
"123","animal","A2VQ1WGHLLLNJ1","hs_diploma",NA,"white","male",24,"none","THANK YOU :)",27,"BI2A00030","maybe no",-1,1519,"india"
"124","animal","A2VQ1WGHLLLNJ1","hs_diploma",NA,"white","male",24,"none","THANK YOU :)",28,"BI2A00032","probably no",-2,1972,"india"
"125","animal","A2VQ1WGHLLLNJ1","hs_diploma",NA,"white","male",24,"none","THANK YOU :)",29,"BI2A00010","probably yes",2,2253,"india"
"126","animal","A2VQ1WGHLLLNJ1","hs_diploma",NA,"white","male",24,"none","THANK YOU :)",30,"BI2A00041","definitely no",-3,2131,"india"
"127","animal","A2VQ1WGHLLLNJ1","hs_diploma",NA,"white","male",24,"none","THANK YOU :)",31,"BI2A00047","definitely no",-3,1008,"india"
"128","animal","A2VQ1WGHLLLNJ1","hs_diploma",NA,"white","male",24,"none","THANK YOU :)",32,"BI2A00005","maybe yes",1,1717,"india"
"129","animal","A2VQ1WGHLLLNJ1","hs_diploma",NA,"white","male",24,"none","THANK YOU :)",33,"BI2A00029","maybe no",-1,1636,"india"
"130","animal","A2VQ1WGHLLLNJ1","hs_diploma",NA,"white","male",24,"none","THANK YOU :)",34,"BI2A00016","maybe no",-1,1250,"india"
"131","animal","A2VQ1WGHLLLNJ1","hs_diploma",NA,"white","male",24,"none","THANK YOU :)",35,"BI2A00042","definitely no",-3,1805,"india"
"132","animal","A2VQ1WGHLLLNJ1","hs_diploma",NA,"white","male",24,"none","THANK YOU :)",36,"BI2A00023","definitely no",-3,1115,"india"
"133","animal","A2VQ1WGHLLLNJ1","hs_diploma",NA,"white","male",24,"none","THANK YOU :)",37,"BI2A00037","definitely no",-3,1790,"india"
"134","animal","A2VQ1WGHLLLNJ1","hs_diploma",NA,"white","male",24,"none","THANK YOU :)",38,"BI2A00044","definitely no",-3,884,"india"
"135","animal","A2VQ1WGHLLLNJ1","hs_diploma",NA,"white","male",24,"none","THANK YOU :)",39,"BI2A00021","definitely no",-3,1139,"india"
"136","animal","A2VQ1WGHLLLNJ1","hs_diploma",NA,"white","male",24,"none","THANK YOU :)",40,"BI2A00046","definitely no",-3,782,"india"
"137","animal","A2VQ1WGHLLLNJ1","hs_diploma",NA,"white","male",24,"none","THANK YOU :)",41,"BI2A00036","definitely no",-3,894,"india"
"138","animal","A2VQ1WGHLLLNJ1","hs_diploma",NA,"white","male",24,"none","THANK YOU :)",42,"BI2A00014","definitely no",-3,1126,"india"
"139","animal","A2VQ1WGHLLLNJ1","hs_diploma",NA,"white","male",24,"none","THANK YOU :)",43,"BI2A00011","definitely yes",3,1504,"india"
"140","animal","A2VQ1WGHLLLNJ1","hs_diploma",NA,"white","male",24,"none","THANK YOU :)",44,"BI2A00015","maybe yes",1,1308,"india"
"141","animal","A2VQ1WGHLLLNJ1","hs_diploma",NA,"white","male",24,"none","THANK YOU :)",45,"BI2A00033","equally yes/no",0,1382,"india"
"142","animal","A2VQ1WGHLLLNJ1","hs_diploma",NA,"white","male",24,"none","THANK YOU :)",46,"BI2A00008","maybe yes",1,1316,"india"
"143","animal","A2VQ1WGHLLLNJ1","hs_diploma",NA,"white","male",24,"none","THANK YOU :)",47,"BI2A00048","definitely no",-3,1741,"india"
"144","animal","A2VQ1WGHLLLNJ1","hs_diploma",NA,"white","male",24,"none","THANK YOU :)",48,"BI2A00018","maybe yes",1,1678,"india"
"145","animal","AT6HH4TKU4WNH","college_bachDegree",NA,"white","male",41,"christianity_catholic","",1,"BI2A00017","maybe no",-1,2757,"india"
"146","animal","AT6HH4TKU4WNH","college_bachDegree",NA,"white","male",41,"christianity_catholic","",2,"BI2A00023","maybe yes",1,1885,"india"
"147","animal","AT6HH4TKU4WNH","college_bachDegree",NA,"white","male",41,"christianity_catholic","",3,"BI2A00029","maybe no",-1,1126,"india"
"148","animal","AT6HH4TKU4WNH","college_bachDegree",NA,"white","male",41,"christianity_catholic","",4,"BI2A00045","probably no",-2,1598,"india"
"149","animal","AT6HH4TKU4WNH","college_bachDegree",NA,"white","male",41,"christianity_catholic","",5,"BI2A00011","maybe yes",1,951,"india"
"150","animal","AT6HH4TKU4WNH","college_bachDegree",NA,"white","male",41,"christianity_catholic","",6,"BI2A00044","definitely no",-3,1102,"india"
"151","animal","AT6HH4TKU4WNH","college_bachDegree",NA,"white","male",41,"christianity_catholic","",7,"BI2A00019","probably yes",2,735,"india"
"152","animal","AT6HH4TKU4WNH","college_bachDegree",NA,"white","male",41,"christianity_catholic","",8,"BI2A00034","maybe yes",1,1327,"india"
"153","animal","AT6HH4TKU4WNH","college_bachDegree",NA,"white","male",41,"christianity_catholic","",9,"BI2A00038","definitely no",-3,966,"india"
"154","animal","AT6HH4TKU4WNH","college_bachDegree",NA,"white","male",41,"christianity_catholic","",10,"BI2A00035","definitely no",-3,2094,"india"
"155","animal","AT6HH4TKU4WNH","college_bachDegree",NA,"white","male",41,"christianity_catholic","",11,"BI2A00007","probably yes",2,886,"india"
"156","animal","AT6HH4TKU4WNH","college_bachDegree",NA,"white","male",41,"christianity_catholic","",12,"BI2A00039","definitely no",-3,1223,"india"
"157","animal","AT6HH4TKU4WNH","college_bachDegree",NA,"white","male",41,"christianity_catholic","",13,"BI2A00006","definitely yes",3,943,"india"
"158","animal","AT6HH4TKU4WNH","college_bachDegree",NA,"white","male",41,"christianity_catholic","",14,"BI2A00022","probably yes",2,1222,"india"
"159","animal","AT6HH4TKU4WNH","college_bachDegree",NA,"white","male",41,"christianity_catholic","",15,"BI2A00005","definitely yes",3,1287,"india"
"160","animal","AT6HH4TKU4WNH","college_bachDegree",NA,"white","male",41,"christianity_catholic","",16,"BI2A00025","probably no",-2,2126,"india"
"161","animal","AT6HH4TKU4WNH","college_bachDegree",NA,"white","male",41,"christianity_catholic","",17,"BI2A00016","maybe no",-1,1359,"india"
"162","animal","AT6HH4TKU4WNH","college_bachDegree",NA,"white","male",41,"christianity_catholic","",18,"BI2A00003","definitely yes",3,1230,"india"
"163","animal","AT6HH4TKU4WNH","college_bachDegree",NA,"white","male",41,"christianity_catholic","",19,"BI2A00032","equally yes/no",0,1751,"india"
"164","animal","AT6HH4TKU4WNH","college_bachDegree",NA,"white","male",41,"christianity_catholic","",20,"BI2A00030","maybe no",-1,1366,"india"
"165","animal","AT6HH4TKU4WNH","college_bachDegree",NA,"white","male",41,"christianity_catholic","",21,"BI2A00020","probably yes",2,1846,"india"
"166","animal","AT6HH4TKU4WNH","college_bachDegree",NA,"white","male",41,"christianity_catholic","",22,"BI2A00028","maybe yes",1,2406,"india"
"167","animal","AT6HH4TKU4WNH","college_bachDegree",NA,"white","male",41,"christianity_catholic","",23,"BI2A00008","probably yes",2,1542,"india"
"168","animal","AT6HH4TKU4WNH","college_bachDegree",NA,"white","male",41,"christianity_catholic","",24,"BI2A00013","maybe yes",1,647,"india"
"169","animal","AT6HH4TKU4WNH","college_bachDegree",NA,"white","male",41,"christianity_catholic","",25,"BI2A00021","probably no",-2,1039,"india"
"170","animal","AT6HH4TKU4WNH","college_bachDegree",NA,"white","male",41,"christianity_catholic","",26,"BI2A00004","probably yes",2,1062,"india"
"171","animal","AT6HH4TKU4WNH","college_bachDegree",NA,"white","male",41,"christianity_catholic","",27,"BI2A00026","probably yes",2,1526,"india"
"172","animal","AT6HH4TKU4WNH","college_bachDegree",NA,"white","male",41,"christianity_catholic","",28,"BI2A00042","maybe no",-1,981,"india"
"173","animal","AT6HH4TKU4WNH","college_bachDegree",NA,"white","male",41,"christianity_catholic","",29,"BI2A00040","probably no",-2,1638,"india"
"174","animal","AT6HH4TKU4WNH","college_bachDegree",NA,"white","male",41,"christianity_catholic","",30,"BI2A00041","definitely no",-3,1639,"india"
"175","animal","AT6HH4TKU4WNH","college_bachDegree",NA,"white","male",41,"christianity_catholic","",31,"BI2A00015","definitely yes",3,1111,"india"
"176","animal","AT6HH4TKU4WNH","college_bachDegree",NA,"white","male",41,"christianity_catholic","",32,"BI2A00014","definitely no",-3,1319,"india"
"177","animal","AT6HH4TKU4WNH","college_bachDegree",NA,"white","male",41,"christianity_catholic","",33,"BI2A00047","definitely no",-3,1591,"india"
"178","animal","AT6HH4TKU4WNH","college_bachDegree",NA,"white","male",41,"christianity_catholic","",34,"BI2A00024","probably yes",2,1582,"india"
"179","animal","AT6HH4TKU4WNH","college_bachDegree",NA,"white","male",41,"christianity_catholic","",35,"BI2A00043","equally yes/no",0,967,"india"
"180","animal","AT6HH4TKU4WNH","college_bachDegree",NA,"white","male",41,"christianity_catholic","",36,"BI2A00018","maybe yes",1,759,"india"
"181","animal","AT6HH4TKU4WNH","college_bachDegree",NA,"white","male",41,"christianity_catholic","",37,"BI2A00012","probably yes",2,1087,"india"
"182","animal","AT6HH4TKU4WNH","college_bachDegree",NA,"white","male",41,"christianity_catholic","",38,"BI2A00001","maybe yes",1,598,"india"
"183","animal","AT6HH4TKU4WNH","college_bachDegree",NA,"white","male",41,"christianity_catholic","",39,"BI2A00002","definitely yes",3,991,"india"
"184","animal","AT6HH4TKU4WNH","college_bachDegree",NA,"white","male",41,"christianity_catholic","",40,"BI2A00010","probably yes",2,663,"india"
"185","animal","AT6HH4TKU4WNH","college_bachDegree",NA,"white","male",41,"christianity_catholic","",41,"BI2A00037","maybe no",-1,1367,"india"
"186","animal","AT6HH4TKU4WNH","college_bachDegree",NA,"white","male",41,"christianity_catholic","",42,"BI2A00046","definitely no",-3,1487,"india"
"187","animal","AT6HH4TKU4WNH","college_bachDegree",NA,"white","male",41,"christianity_catholic","",43,"BI2A00033","definitely no",-3,1631,"india"
"188","animal","AT6HH4TKU4WNH","college_bachDegree",NA,"white","male",41,"christianity_catholic","",44,"BI2A00048","definitely no",-3,598,"india"
"189","animal","AT6HH4TKU4WNH","college_bachDegree",NA,"white","male",41,"christianity_catholic","",45,"BI2A00027","definitely no",-3,709,"india"
"190","animal","AT6HH4TKU4WNH","college_bachDegree",NA,"white","male",41,"christianity_catholic","",46,"BI2A00009","definitely yes",3,1375,"india"
"191","animal","AT6HH4TKU4WNH","college_bachDegree",NA,"white","male",41,"christianity_catholic","",47,"BI2A00036","definitely no",-3,1319,"india"
"192","animal","AT6HH4TKU4WNH","college_bachDegree",NA,"white","male",41,"christianity_catholic","",48,"BI2A00031","definitely no",-3,1415,"india"
"193","animal","A28CZ3YYL41JAZ","grad_degree",NA,"white","male",40,"christianity_catholic","none",1,"BI2A00046","definitely no",-3,2859,"india"
"194","animal","A28CZ3YYL41JAZ","grad_degree",NA,"white","male",40,"christianity_catholic","none",2,"BI2A00018","maybe yes",1,3022,"india"
"195","animal","A28CZ3YYL41JAZ","grad_degree",NA,"white","male",40,"christianity_catholic","none",3,"BI2A00007","definitely yes",3,1613,"india"
"196","animal","A28CZ3YYL41JAZ","grad_degree",NA,"white","male",40,"christianity_catholic","none",4,"BI2A00008","definitely yes",3,1123,"india"
"197","animal","A28CZ3YYL41JAZ","grad_degree",NA,"white","male",40,"christianity_catholic","none",5,"BI2A00031","definitely no",-3,1697,"india"
"198","animal","A28CZ3YYL41JAZ","grad_degree",NA,"white","male",40,"christianity_catholic","none",6,"BI2A00001","probably yes",2,2702,"india"
"199","animal","A28CZ3YYL41JAZ","grad_degree",NA,"white","male",40,"christianity_catholic","none",7,"BI2A00028","probably yes",2,1209,"india"
"200","animal","A28CZ3YYL41JAZ","grad_degree",NA,"white","male",40,"christianity_catholic","none",8,"BI2A00023","probably no",-2,3656,"india"
"201","animal","A28CZ3YYL41JAZ","grad_degree",NA,"white","male",40,"christianity_catholic","none",9,"BI2A00045","definitely no",-3,1482,"india"
"202","animal","A28CZ3YYL41JAZ","grad_degree",NA,"white","male",40,"christianity_catholic","none",10,"BI2A00004","probably yes",2,1604,"india"
"203","animal","A28CZ3YYL41JAZ","grad_degree",NA,"white","male",40,"christianity_catholic","none",11,"BI2A00015","probably yes",2,1129,"india"
"204","animal","A28CZ3YYL41JAZ","grad_degree",NA,"white","male",40,"christianity_catholic","none",12,"BI2A00035","definitely no",-3,2135,"india"
"205","animal","A28CZ3YYL41JAZ","grad_degree",NA,"white","male",40,"christianity_catholic","none",13,"BI2A00040","definitely no",-3,1705,"india"
"206","animal","A28CZ3YYL41JAZ","grad_degree",NA,"white","male",40,"christianity_catholic","none",14,"BI2A00036","definitely no",-3,890,"india"
"207","animal","A28CZ3YYL41JAZ","grad_degree",NA,"white","male",40,"christianity_catholic","none",15,"BI2A00037","definitely no",-3,1652,"india"
"208","animal","A28CZ3YYL41JAZ","grad_degree",NA,"white","male",40,"christianity_catholic","none",16,"BI2A00006","definitely yes",3,1908,"india"
"209","animal","A28CZ3YYL41JAZ","grad_degree",NA,"white","male",40,"christianity_catholic","none",17,"BI2A00024","definitely yes",3,1791,"india"
"210","animal","A28CZ3YYL41JAZ","grad_degree",NA,"white","male",40,"christianity_catholic","none",18,"BI2A00020","definitely yes",3,1512,"india"
"211","animal","A28CZ3YYL41JAZ","grad_degree",NA,"white","male",40,"christianity_catholic","none",19,"BI2A00039","definitely no",-3,2294,"india"
"212","animal","A28CZ3YYL41JAZ","grad_degree",NA,"white","male",40,"christianity_catholic","none",20,"BI2A00009","definitely yes",3,2054,"india"
"213","animal","A28CZ3YYL41JAZ","grad_degree",NA,"white","male",40,"christianity_catholic","none",21,"BI2A00012","definitely yes",3,1909,"india"
"214","animal","A28CZ3YYL41JAZ","grad_degree",NA,"white","male",40,"christianity_catholic","none",22,"BI2A00030","definitely no",-3,2980,"india"
"215","animal","A28CZ3YYL41JAZ","grad_degree",NA,"white","male",40,"christianity_catholic","none",23,"BI2A00034","maybe yes",1,2552,"india"
"216","animal","A28CZ3YYL41JAZ","grad_degree",NA,"white","male",40,"christianity_catholic","none",24,"BI2A00011","definitely yes",3,1910,"india"
"217","animal","A28CZ3YYL41JAZ","grad_degree",NA,"white","male",40,"christianity_catholic","none",25,"BI2A00029","definitely no",-3,1678,"india"
"218","animal","A28CZ3YYL41JAZ","grad_degree",NA,"white","male",40,"christianity_catholic","none",26,"BI2A00027","maybe no",-1,2270,"india"
"219","animal","A28CZ3YYL41JAZ","grad_degree",NA,"white","male",40,"christianity_catholic","none",27,"BI2A00032","maybe yes",1,1907,"india"
"220","animal","A28CZ3YYL41JAZ","grad_degree",NA,"white","male",40,"christianity_catholic","none",28,"BI2A00042","definitely no",-3,3711,"india"
"221","animal","A28CZ3YYL41JAZ","grad_degree",NA,"white","male",40,"christianity_catholic","none",29,"BI2A00005","definitely yes",3,1521,"india"
"222","animal","A28CZ3YYL41JAZ","grad_degree",NA,"white","male",40,"christianity_catholic","none",30,"BI2A00041","equally yes/no",0,2308,"india"
"223","animal","A28CZ3YYL41JAZ","grad_degree",NA,"white","male",40,"christianity_catholic","none",31,"BI2A00019","probably yes",2,1549,"india"
"224","animal","A28CZ3YYL41JAZ","grad_degree",NA,"white","male",40,"christianity_catholic","none",32,"BI2A00002","probably yes",2,1050,"india"
"225","animal","A28CZ3YYL41JAZ","grad_degree",NA,"white","male",40,"christianity_catholic","none",33,"BI2A00043","definitely no",-3,2076,"india"
"226","animal","A28CZ3YYL41JAZ","grad_degree",NA,"white","male",40,"christianity_catholic","none",34,"BI2A00014","maybe no",-1,2798,"india"
"227","animal","A28CZ3YYL41JAZ","grad_degree",NA,"white","male",40,"christianity_catholic","none",35,"BI2A00026","probably yes",2,2068,"india"
"228","animal","A28CZ3YYL41JAZ","grad_degree",NA,"white","male",40,"christianity_catholic","none",36,"BI2A00047","definitely no",-3,1605,"india"
"229","animal","A28CZ3YYL41JAZ","grad_degree",NA,"white","male",40,"christianity_catholic","none",37,"BI2A00003","probably yes",2,1649,"india"
"230","animal","A28CZ3YYL41JAZ","grad_degree",NA,"white","male",40,"christianity_catholic","none",38,"BI2A00013","probably yes",2,1200,"india"
"231","animal","A28CZ3YYL41JAZ","grad_degree",NA,"white","male",40,"christianity_catholic","none",39,"BI2A00016","probably yes",2,1099,"india"
"232","animal","A28CZ3YYL41JAZ","grad_degree",NA,"white","male",40,"christianity_catholic","none",40,"BI2A00025","probably no",-2,2448,"india"
"233","animal","A28CZ3YYL41JAZ","grad_degree",NA,"white","male",40,"christianity_catholic","none",41,"BI2A00021","definitely yes",3,2546,"india"
"234","animal","A28CZ3YYL41JAZ","grad_degree",NA,"white","male",40,"christianity_catholic","none",42,"BI2A00038","definitely no",-3,2965,"india"
"235","animal","A28CZ3YYL41JAZ","grad_degree",NA,"white","male",40,"christianity_catholic","none",43,"BI2A00017","maybe yes",1,2142,"india"
"236","animal","A28CZ3YYL41JAZ","grad_degree",NA,"white","male",40,"christianity_catholic","none",44,"BI2A00044","definitely no",-3,1729,"india"
"237","animal","A28CZ3YYL41JAZ","grad_degree",NA,"white","male",40,"christianity_catholic","none",45,"BI2A00010","probably yes",2,2944,"india"
"238","animal","A28CZ3YYL41JAZ","grad_degree",NA,"white","male",40,"christianity_catholic","none",46,"BI2A00022","probably yes",2,1102,"india"
"239","animal","A28CZ3YYL41JAZ","grad_degree",NA,"white","male",40,"christianity_catholic","none",47,"BI2A00033","probably no",-2,2165,"india"
"240","animal","A28CZ3YYL41JAZ","grad_degree",NA,"white","male",40,"christianity_catholic","none",48,"BI2A00048","definitely no",-3,1433,"india"
"241","animal","AZIY6IFOS4CVC","college_bachDegree",NA,"white","male",26,"christianity_catholic","No comments. ",1,"BI2A00047","definitely no",-3,7671,"india"
"242","animal","AZIY6IFOS4CVC","college_bachDegree",NA,"white","male",26,"christianity_catholic","No comments. ",2,"BI2A00032","probably yes",2,3781,"india"
"243","animal","AZIY6IFOS4CVC","college_bachDegree",NA,"white","male",26,"christianity_catholic","No comments. ",3,"BI2A00027","maybe no",-1,2676,"india"
"244","animal","AZIY6IFOS4CVC","college_bachDegree",NA,"white","male",26,"christianity_catholic","No comments. ",4,"BI2A00008","definitely yes",3,1850,"india"
"245","animal","AZIY6IFOS4CVC","college_bachDegree",NA,"white","male",26,"christianity_catholic","No comments. ",5,"BI2A00036","definitely no",-3,2085,"india"
"246","animal","AZIY6IFOS4CVC","college_bachDegree",NA,"white","male",26,"christianity_catholic","No comments. ",6,"BI2A00009","definitely yes",3,1838,"india"
"247","animal","AZIY6IFOS4CVC","college_bachDegree",NA,"white","male",26,"christianity_catholic","No comments. ",7,"BI2A00028","probably yes",2,2880,"india"
"248","animal","AZIY6IFOS4CVC","college_bachDegree",NA,"white","male",26,"christianity_catholic","No comments. ",8,"BI2A00037","maybe yes",1,2688,"india"
"249","animal","AZIY6IFOS4CVC","college_bachDegree",NA,"white","male",26,"christianity_catholic","No comments. ",9,"BI2A00041","definitely no",-3,2893,"india"
"250","animal","AZIY6IFOS4CVC","college_bachDegree",NA,"white","male",26,"christianity_catholic","No comments. ",10,"BI2A00021","definitely no",-3,3862,"india"
"251","animal","AZIY6IFOS4CVC","college_bachDegree",NA,"white","male",26,"christianity_catholic","No comments. ",11,"BI2A00016","probably yes",2,2236,"india"
"252","animal","AZIY6IFOS4CVC","college_bachDegree",NA,"white","male",26,"christianity_catholic","No comments. ",12,"BI2A00015","definitely yes",3,1580,"india"
"253","animal","AZIY6IFOS4CVC","college_bachDegree",NA,"white","male",26,"christianity_catholic","No comments. ",13,"BI2A00020","maybe yes",1,4567,"india"
"254","animal","AZIY6IFOS4CVC","college_bachDegree",NA,"white","male",26,"christianity_catholic","No comments. ",14,"BI2A00011","definitely yes",3,1748,"india"
"255","animal","AZIY6IFOS4CVC","college_bachDegree",NA,"white","male",26,"christianity_catholic","No comments. ",15,"BI2A00002","probably yes",2,11643,"india"
"256","animal","AZIY6IFOS4CVC","college_bachDegree",NA,"white","male",26,"christianity_catholic","No comments. ",16,"BI2A00005","definitely yes",3,1277,"india"
"257","animal","AZIY6IFOS4CVC","college_bachDegree",NA,"white","male",26,"christianity_catholic","No comments. ",17,"BI2A00029","definitely no",-3,1644,"india"
"258","animal","AZIY6IFOS4CVC","college_bachDegree",NA,"white","male",26,"christianity_catholic","No comments. ",18,"BI2A00038","definitely no",-3,2701,"india"
"259","animal","AZIY6IFOS4CVC","college_bachDegree",NA,"white","male",26,"christianity_catholic","No comments. ",19,"BI2A00043","probably yes",2,3936,"india"
"260","animal","AZIY6IFOS4CVC","college_bachDegree",NA,"white","male",26,"christianity_catholic","No comments. ",20,"BI2A00045","definitely no",-3,1489,"india"
"261","animal","AZIY6IFOS4CVC","college_bachDegree",NA,"white","male",26,"christianity_catholic","No comments. ",21,"BI2A00039","definitely no",-3,1902,"india"
"262","animal","AZIY6IFOS4CVC","college_bachDegree",NA,"white","male",26,"christianity_catholic","No comments. ",22,"BI2A00003","probably yes",2,1660,"india"
"263","animal","AZIY6IFOS4CVC","college_bachDegree",NA,"white","male",26,"christianity_catholic","No comments. ",23,"BI2A00024","definitely yes",3,2210,"india"
"264","animal","AZIY6IFOS4CVC","college_bachDegree",NA,"white","male",26,"christianity_catholic","No comments. ",24,"BI2A00026","probably no",-2,4451,"india"
"265","animal","AZIY6IFOS4CVC","college_bachDegree",NA,"white","male",26,"christianity_catholic","No comments. ",25,"BI2A00030","definitely no",-3,3099,"india"
"266","animal","AZIY6IFOS4CVC","college_bachDegree",NA,"white","male",26,"christianity_catholic","No comments. ",26,"BI2A00010","definitely yes",3,2097,"india"
"267","animal","AZIY6IFOS4CVC","college_bachDegree",NA,"white","male",26,"christianity_catholic","No comments. ",27,"BI2A00023","maybe no",-1,4414,"india"
"268","animal","AZIY6IFOS4CVC","college_bachDegree",NA,"white","male",26,"christianity_catholic","No comments. ",28,"BI2A00018","probably yes",2,5841,"india"
"269","animal","AZIY6IFOS4CVC","college_bachDegree",NA,"white","male",26,"christianity_catholic","No comments. ",29,"BI2A00048","definitely no",-3,1554,"india"
"270","animal","AZIY6IFOS4CVC","college_bachDegree",NA,"white","male",26,"christianity_catholic","No comments. ",30,"BI2A00019","probably yes",2,4465,"india"
"271","animal","AZIY6IFOS4CVC","college_bachDegree",NA,"white","male",26,"christianity_catholic","No comments. ",31,"BI2A00022","probably yes",2,2096,"india"
"272","animal","AZIY6IFOS4CVC","college_bachDegree",NA,"white","male",26,"christianity_catholic","No comments. ",32,"BI2A00004","definitely yes",3,1310,"india"
"273","animal","AZIY6IFOS4CVC","college_bachDegree",NA,"white","male",26,"christianity_catholic","No comments. ",33,"BI2A00006","definitely yes",3,1555,"india"
"274","animal","AZIY6IFOS4CVC","college_bachDegree",NA,"white","male",26,"christianity_catholic","No comments. ",34,"BI2A00033","definitely no",-3,1490,"india"
"275","animal","AZIY6IFOS4CVC","college_bachDegree",NA,"white","male",26,"christianity_catholic","No comments. ",35,"BI2A00013","probably yes",2,2431,"india"
"276","animal","AZIY6IFOS4CVC","college_bachDegree",NA,"white","male",26,"christianity_catholic","No comments. ",36,"BI2A00007","definitely yes",3,2175,"india"
"277","animal","AZIY6IFOS4CVC","college_bachDegree",NA,"white","male",26,"christianity_catholic","No comments. ",37,"BI2A00040","definitely no",-3,1525,"india"
"278","animal","AZIY6IFOS4CVC","college_bachDegree",NA,"white","male",26,"christianity_catholic","No comments. ",38,"BI2A00046","definitely no",-3,1478,"india"
"279","animal","AZIY6IFOS4CVC","college_bachDegree",NA,"white","male",26,"christianity_catholic","No comments. ",39,"BI2A00017","probably no",-2,6664,"india"
"280","animal","AZIY6IFOS4CVC","college_bachDegree",NA,"white","male",26,"christianity_catholic","No comments. ",40,"BI2A00034","probably no",-2,2778,"india"
"281","animal","AZIY6IFOS4CVC","college_bachDegree",NA,"white","male",26,"christianity_catholic","No comments. ",41,"BI2A00031","definitely no",-3,1310,"india"
"282","animal","AZIY6IFOS4CVC","college_bachDegree",NA,"white","male",26,"christianity_catholic","No comments. ",42,"BI2A00044","definitely no",-3,1865,"india"
"283","animal","AZIY6IFOS4CVC","college_bachDegree",NA,"white","male",26,"christianity_catholic","No comments. ",43,"BI2A00012","probably yes",2,6340,"india"
"284","animal","AZIY6IFOS4CVC","college_bachDegree",NA,"white","male",26,"christianity_catholic","No comments. ",44,"BI2A00035","definitely no",-3,1607,"india"
"285","animal","AZIY6IFOS4CVC","college_bachDegree",NA,"white","male",26,"christianity_catholic","No comments. ",45,"BI2A00042","probably no",-2,3589,"india"
"286","animal","AZIY6IFOS4CVC","college_bachDegree",NA,"white","male",26,"christianity_catholic","No comments. ",46,"BI2A00025","probably no",-2,1865,"india"
"287","animal","AZIY6IFOS4CVC","college_bachDegree",NA,"white","male",26,"christianity_catholic","No comments. ",47,"BI2A00001","definitely yes",3,2905,"india"
"288","animal","AZIY6IFOS4CVC","college_bachDegree",NA,"white","male",26,"christianity_catholic","No comments. ",48,"BI2A00014","probably yes",2,2108,"india"
"289","animal","A7N6S6UMIBGHH","college_bachDegree",NA,"asian_eastAsian","female",28,"none","",1,"BI2A00044","definitely no",-3,1971,"india"
"290","animal","A7N6S6UMIBGHH","college_bachDegree",NA,"asian_eastAsian","female",28,"none","",2,"BI2A00020","probably yes",2,5446,"india"
"291","animal","A7N6S6UMIBGHH","college_bachDegree",NA,"asian_eastAsian","female",28,"none","",3,"BI2A00048","definitely no",-3,2162,"india"
"292","animal","A7N6S6UMIBGHH","college_bachDegree",NA,"asian_eastAsian","female",28,"none","",4,"BI2A00029","probably no",-2,2636,"india"
"293","animal","A7N6S6UMIBGHH","college_bachDegree",NA,"asian_eastAsian","female",28,"none","",5,"BI2A00010","probably yes",2,1973,"india"
"294","animal","A7N6S6UMIBGHH","college_bachDegree",NA,"asian_eastAsian","female",28,"none","",6,"BI2A00031","definitely no",-3,1148,"india"
"295","animal","A7N6S6UMIBGHH","college_bachDegree",NA,"asian_eastAsian","female",28,"none","",7,"BI2A00041","definitely no",-3,1456,"india"
"296","animal","A7N6S6UMIBGHH","college_bachDegree",NA,"asian_eastAsian","female",28,"none","",8,"BI2A00004","definitely yes",3,1363,"india"
"297","animal","A7N6S6UMIBGHH","college_bachDegree",NA,"asian_eastAsian","female",28,"none","",9,"BI2A00014","probably yes",2,1596,"india"
"298","animal","A7N6S6UMIBGHH","college_bachDegree",NA,"asian_eastAsian","female",28,"none","",10,"BI2A00023","maybe yes",1,2016,"india"
"299","animal","A7N6S6UMIBGHH","college_bachDegree",NA,"asian_eastAsian","female",28,"none","",11,"BI2A00035","definitely no",-3,1226,"india"
"300","animal","A7N6S6UMIBGHH","college_bachDegree",NA,"asian_eastAsian","female",28,"none","",12,"BI2A00012","maybe yes",1,1863,"india"
"301","animal","A7N6S6UMIBGHH","college_bachDegree",NA,"asian_eastAsian","female",28,"none","",13,"BI2A00022","probably yes",2,1448,"india"
"302","animal","A7N6S6UMIBGHH","college_bachDegree",NA,"asian_eastAsian","female",28,"none","",14,"BI2A00001","probably yes",2,1153,"india"
"303","animal","A7N6S6UMIBGHH","college_bachDegree",NA,"asian_eastAsian","female",28,"none","",15,"BI2A00024","maybe no",-1,3676,"india"
"304","animal","A7N6S6UMIBGHH","college_bachDegree",NA,"asian_eastAsian","female",28,"none","",16,"BI2A00006","definitely yes",3,1328,"india"
"305","animal","A7N6S6UMIBGHH","college_bachDegree",NA,"asian_eastAsian","female",28,"none","",17,"BI2A00033","definitely no",-3,1459,"india"
"306","animal","A7N6S6UMIBGHH","college_bachDegree",NA,"asian_eastAsian","female",28,"none","",18,"BI2A00043","probably yes",2,1352,"india"
"307","animal","A7N6S6UMIBGHH","college_bachDegree",NA,"asian_eastAsian","female",28,"none","",19,"BI2A00015","probably yes",2,923,"india"
"308","animal","A7N6S6UMIBGHH","college_bachDegree",NA,"asian_eastAsian","female",28,"none","",20,"BI2A00013","definitely yes",3,1235,"india"
"309","animal","A7N6S6UMIBGHH","college_bachDegree",NA,"asian_eastAsian","female",28,"none","",21,"BI2A00003","definitely yes",3,867,"india"
"310","animal","A7N6S6UMIBGHH","college_bachDegree",NA,"asian_eastAsian","female",28,"none","",22,"BI2A00016","probably yes",2,1728,"india"
"311","animal","A7N6S6UMIBGHH","college_bachDegree",NA,"asian_eastAsian","female",28,"none","",23,"BI2A00034","maybe no",-1,2362,"india"
"312","animal","A7N6S6UMIBGHH","college_bachDegree",NA,"asian_eastAsian","female",28,"none","",24,"BI2A00002","probably yes",2,1109,"india"
"313","animal","A7N6S6UMIBGHH","college_bachDegree",NA,"asian_eastAsian","female",28,"none","",25,"BI2A00025","maybe yes",1,2891,"india"
"314","animal","A7N6S6UMIBGHH","college_bachDegree",NA,"asian_eastAsian","female",28,"none","",26,"BI2A00027","probably no",-2,1540,"india"
"315","animal","A7N6S6UMIBGHH","college_bachDegree",NA,"asian_eastAsian","female",28,"none","",27,"BI2A00042","definitely no",-3,1101,"india"
"316","animal","A7N6S6UMIBGHH","college_bachDegree",NA,"asian_eastAsian","female",28,"none","",28,"BI2A00019","probably yes",2,1238,"india"
"317","animal","A7N6S6UMIBGHH","college_bachDegree",NA,"asian_eastAsian","female",28,"none","",29,"BI2A00046","definitely no",-3,1052,"india"
"318","animal","A7N6S6UMIBGHH","college_bachDegree",NA,"asian_eastAsian","female",28,"none","",30,"BI2A00018","maybe yes",1,1975,"india"
"319","animal","A7N6S6UMIBGHH","college_bachDegree",NA,"asian_eastAsian","female",28,"none","",31,"BI2A00037","equally yes/no",0,2315,"india"
"320","animal","A7N6S6UMIBGHH","college_bachDegree",NA,"asian_eastAsian","female",28,"none","",32,"BI2A00011","definitely yes",3,2001,"india"
"321","animal","A7N6S6UMIBGHH","college_bachDegree",NA,"asian_eastAsian","female",28,"none","",33,"BI2A00021","probably no",-2,2020,"india"
"322","animal","A7N6S6UMIBGHH","college_bachDegree",NA,"asian_eastAsian","female",28,"none","",34,"BI2A00039","definitely no",-3,918,"india"
"323","animal","A7N6S6UMIBGHH","college_bachDegree",NA,"asian_eastAsian","female",28,"none","",35,"BI2A00036","definitely no",-3,1232,"india"
"324","animal","A7N6S6UMIBGHH","college_bachDegree",NA,"asian_eastAsian","female",28,"none","",36,"BI2A00032","equally yes/no",0,2268,"india"
"325","animal","A7N6S6UMIBGHH","college_bachDegree",NA,"asian_eastAsian","female",28,"none","",37,"BI2A00045","definitely no",-3,964,"india"
"326","animal","A7N6S6UMIBGHH","college_bachDegree",NA,"asian_eastAsian","female",28,"none","",38,"BI2A00005","definitely yes",3,1319,"india"
"327","animal","A7N6S6UMIBGHH","college_bachDegree",NA,"asian_eastAsian","female",28,"none","",39,"BI2A00047","definitely no",-3,1200,"india"
"328","animal","A7N6S6UMIBGHH","college_bachDegree",NA,"asian_eastAsian","female",28,"none","",40,"BI2A00017","definitely no",-3,972,"india"
"329","animal","A7N6S6UMIBGHH","college_bachDegree",NA,"asian_eastAsian","female",28,"none","",41,"BI2A00007","definitely yes",3,1125,"india"
"330","animal","A7N6S6UMIBGHH","college_bachDegree",NA,"asian_eastAsian","female",28,"none","",42,"BI2A00028","probably yes",2,1434,"india"
"331","animal","A7N6S6UMIBGHH","college_bachDegree",NA,"asian_eastAsian","female",28,"none","",43,"BI2A00040","definitely no",-3,1006,"india"
"332","animal","A7N6S6UMIBGHH","college_bachDegree",NA,"asian_eastAsian","female",28,"none","",44,"BI2A00026","maybe yes",1,3405,"india"
"333","animal","A7N6S6UMIBGHH","college_bachDegree",NA,"asian_eastAsian","female",28,"none","",45,"BI2A00038","probably no",-2,2165,"india"
"334","animal","A7N6S6UMIBGHH","college_bachDegree",NA,"asian_eastAsian","female",28,"none","",46,"BI2A00009","probably yes",2,1142,"india"
"335","animal","A7N6S6UMIBGHH","college_bachDegree",NA,"asian_eastAsian","female",28,"none","",47,"BI2A00008","definitely yes",3,1593,"india"
"336","animal","A7N6S6UMIBGHH","college_bachDegree",NA,"asian_eastAsian","female",28,"none","",48,"BI2A00030","maybe no",-1,1863,"india"
"337","animal","A2NZ7RMSBXESNI","college_assocDegree",NA,"white","female",60,"none","Thank you",1,"BI2A00039","definitely no",-3,3978,"india"
"338","animal","A2NZ7RMSBXESNI","college_assocDegree",NA,"white","female",60,"none","Thank you",2,"BI2A00018","maybe no",-1,3049,"india"
"339","animal","A2NZ7RMSBXESNI","college_assocDegree",NA,"white","female",60,"none","Thank you",3,"BI2A00001","definitely yes",3,5701,"india"
"340","animal","A2NZ7RMSBXESNI","college_assocDegree",NA,"white","female",60,"none","Thank you",4,"BI2A00016","definitely yes",3,1629,"india"
"341","animal","A2NZ7RMSBXESNI","college_assocDegree",NA,"white","female",60,"none","Thank you",5,"BI2A00024","definitely yes",3,1157,"india"
"342","animal","A2NZ7RMSBXESNI","college_assocDegree",NA,"white","female",60,"none","Thank you",6,"BI2A00017","maybe no",-1,2581,"india"
"343","animal","A2NZ7RMSBXESNI","college_assocDegree",NA,"white","female",60,"none","Thank you",7,"BI2A00029","probably no",-2,4086,"india"
"344","animal","A2NZ7RMSBXESNI","college_assocDegree",NA,"white","female",60,"none","Thank you",8,"BI2A00021","maybe no",-1,3824,"india"
"345","animal","A2NZ7RMSBXESNI","college_assocDegree",NA,"white","female",60,"none","Thank you",9,"BI2A00005","definitely yes",3,1647,"india"
"346","animal","A2NZ7RMSBXESNI","college_assocDegree",NA,"white","female",60,"none","Thank you",10,"BI2A00047","maybe no",-1,3693,"india"
"347","animal","A2NZ7RMSBXESNI","college_assocDegree",NA,"white","female",60,"none","Thank you",11,"BI2A00011","definitely yes",3,3436,"india"
"348","animal","A2NZ7RMSBXESNI","college_assocDegree",NA,"white","female",60,"none","Thank you",12,"BI2A00044","definitely no",-3,2275,"india"
"349","animal","A2NZ7RMSBXESNI","college_assocDegree",NA,"white","female",60,"none","Thank you",13,"BI2A00008","definitely yes",3,2018,"india"
"350","animal","A2NZ7RMSBXESNI","college_assocDegree",NA,"white","female",60,"none","Thank you",14,"BI2A00015","definitely yes",3,1972,"india"
"351","animal","A2NZ7RMSBXESNI","college_assocDegree",NA,"white","female",60,"none","Thank you",15,"BI2A00004","definitely yes",3,1133,"india"
"352","animal","A2NZ7RMSBXESNI","college_assocDegree",NA,"white","female",60,"none","Thank you",16,"BI2A00038","maybe no",-1,3076,"india"
"353","animal","A2NZ7RMSBXESNI","college_assocDegree",NA,"white","female",60,"none","Thank you",17,"BI2A00006","definitely yes",3,1371,"india"
"354","animal","A2NZ7RMSBXESNI","college_assocDegree",NA,"white","female",60,"none","Thank you",18,"BI2A00012","definitely yes",3,1553,"india"
"355","animal","A2NZ7RMSBXESNI","college_assocDegree",NA,"white","female",60,"none","Thank you",19,"BI2A00045","definitely no",-3,2551,"india"
"356","animal","A2NZ7RMSBXESNI","college_assocDegree",NA,"white","female",60,"none","Thank you",20,"BI2A00048","definitely no",-3,1909,"india"
"357","animal","A2NZ7RMSBXESNI","college_assocDegree",NA,"white","female",60,"none","Thank you",21,"BI2A00028","probably yes",2,19863,"india"
"358","animal","A2NZ7RMSBXESNI","college_assocDegree",NA,"white","female",60,"none","Thank you",22,"BI2A00023","maybe yes",1,3532,"india"
"359","animal","A2NZ7RMSBXESNI","college_assocDegree",NA,"white","female",60,"none","Thank you",23,"BI2A00036","definitely no",-3,2348,"india"
"360","animal","A2NZ7RMSBXESNI","college_assocDegree",NA,"white","female",60,"none","Thank you",24,"BI2A00041","definitely no",-3,1713,"india"
"361","animal","A2NZ7RMSBXESNI","college_assocDegree",NA,"white","female",60,"none","Thank you",25,"BI2A00002","definitely yes",3,17775,"india"
"362","animal","A2NZ7RMSBXESNI","college_assocDegree",NA,"white","female",60,"none","Thank you",26,"BI2A00007","definitely yes",3,1112,"india"
"363","animal","A2NZ7RMSBXESNI","college_assocDegree",NA,"white","female",60,"none","Thank you",27,"BI2A00035","definitely no",-3,1724,"india"
"364","animal","A2NZ7RMSBXESNI","college_assocDegree",NA,"white","female",60,"none","Thank you",28,"BI2A00037","definitely no",-3,1686,"india"
"365","animal","A2NZ7RMSBXESNI","college_assocDegree",NA,"white","female",60,"none","Thank you",29,"BI2A00026","probably yes",2,2563,"india"
"366","animal","A2NZ7RMSBXESNI","college_assocDegree",NA,"white","female",60,"none","Thank you",30,"BI2A00010","probably yes",2,1597,"india"
"367","animal","A2NZ7RMSBXESNI","college_assocDegree",NA,"white","female",60,"none","Thank you",31,"BI2A00022","probably yes",2,1953,"india"
"368","animal","A2NZ7RMSBXESNI","college_assocDegree",NA,"white","female",60,"none","Thank you",32,"BI2A00034","probably no",-2,2213,"india"
"369","animal","A2NZ7RMSBXESNI","college_assocDegree",NA,"white","female",60,"none","Thank you",33,"BI2A00046","definitely no",-3,1238,"india"
"370","animal","A2NZ7RMSBXESNI","college_assocDegree",NA,"white","female",60,"none","Thank you",34,"BI2A00019","definitely yes",3,2063,"india"
"371","animal","A2NZ7RMSBXESNI","college_assocDegree",NA,"white","female",60,"none","Thank you",35,"BI2A00020","definitely yes",3,1922,"india"
"372","animal","A2NZ7RMSBXESNI","college_assocDegree",NA,"white","female",60,"none","Thank you",36,"BI2A00025","probably no",-2,1970,"india"
"373","animal","A2NZ7RMSBXESNI","college_assocDegree",NA,"white","female",60,"none","Thank you",37,"BI2A00013","definitely yes",3,1702,"india"
"374","animal","A2NZ7RMSBXESNI","college_assocDegree",NA,"white","female",60,"none","Thank you",38,"BI2A00031","definitely no",-3,1789,"india"
"375","animal","A2NZ7RMSBXESNI","college_assocDegree",NA,"white","female",60,"none","Thank you",39,"BI2A00003","definitely yes",3,1712,"india"
"376","animal","A2NZ7RMSBXESNI","college_assocDegree",NA,"white","female",60,"none","Thank you",40,"BI2A00042","probably no",-2,2905,"india"
"377","animal","A2NZ7RMSBXESNI","college_assocDegree",NA,"white","female",60,"none","Thank you",41,"BI2A00009","maybe yes",1,2962,"india"
"378","animal","A2NZ7RMSBXESNI","college_assocDegree",NA,"white","female",60,"none","Thank you",42,"BI2A00032","maybe no",-1,2458,"india"
"379","animal","A2NZ7RMSBXESNI","college_assocDegree",NA,"white","female",60,"none","Thank you",43,"BI2A00033","probably no",-2,1669,"india"
"380","animal","A2NZ7RMSBXESNI","college_assocDegree",NA,"white","female",60,"none","Thank you",44,"BI2A00043","definitely no",-3,2386,"india"
"381","animal","A2NZ7RMSBXESNI","college_assocDegree",NA,"white","female",60,"none","Thank you",45,"BI2A00030","definitely no",-3,1259,"india"
"382","animal","A2NZ7RMSBXESNI","college_assocDegree",NA,"white","female",60,"none","Thank you",46,"BI2A00027","definitely no",-3,1194,"india"
"383","animal","A2NZ7RMSBXESNI","college_assocDegree",NA,"white","female",60,"none","Thank you",47,"BI2A00014","maybe yes",1,1917,"india"
"384","animal","A2NZ7RMSBXESNI","college_assocDegree",NA,"white","female",60,"none","Thank you",48,"BI2A00040","definitely no",-3,1511,"india"
"385","animal","A2C7UETA9SL9SK","college_bachDegree",NA,"asian_eastAsian","female",26,"none","",1,"BI2A00016","maybe no",-1,7181,"india"
"386","animal","A2C7UETA9SL9SK","college_bachDegree",NA,"asian_eastAsian","female",26,"none","",2,"BI2A00013","maybe no",-1,3066,"india"
"387","animal","A2C7UETA9SL9SK","college_bachDegree",NA,"asian_eastAsian","female",26,"none","",3,"BI2A00041","definitely no",-3,1899,"india"
"388","animal","A2C7UETA9SL9SK","college_bachDegree",NA,"asian_eastAsian","female",26,"none","",4,"BI2A00005","probably yes",2,2259,"india"
"389","animal","A2C7UETA9SL9SK","college_bachDegree",NA,"asian_eastAsian","female",26,"none","",5,"BI2A00019","probably yes",2,1531,"india"
"390","animal","A2C7UETA9SL9SK","college_bachDegree",NA,"asian_eastAsian","female",26,"none","",6,"BI2A00012","equally yes/no",0,3177,"india"
"391","animal","A2C7UETA9SL9SK","college_bachDegree",NA,"asian_eastAsian","female",26,"none","",7,"BI2A00018","probably no",-2,1867,"india"
"392","animal","A2C7UETA9SL9SK","college_bachDegree",NA,"asian_eastAsian","female",26,"none","",8,"BI2A00031","definitely no",-3,1373,"india"
"393","animal","A2C7UETA9SL9SK","college_bachDegree",NA,"asian_eastAsian","female",26,"none","",9,"BI2A00026","probably yes",2,1749,"india"
"394","animal","A2C7UETA9SL9SK","college_bachDegree",NA,"asian_eastAsian","female",26,"none","",10,"BI2A00042","definitely no",-3,1515,"india"
"395","animal","A2C7UETA9SL9SK","college_bachDegree",NA,"asian_eastAsian","female",26,"none","",11,"BI2A00047","probably no",-2,3154,"india"
"396","animal","A2C7UETA9SL9SK","college_bachDegree",NA,"asian_eastAsian","female",26,"none","",12,"BI2A00027","probably no",-2,1953,"india"
"397","animal","A2C7UETA9SL9SK","college_bachDegree",NA,"asian_eastAsian","female",26,"none","",13,"BI2A00002","definitely yes",3,1247,"india"
"398","animal","A2C7UETA9SL9SK","college_bachDegree",NA,"asian_eastAsian","female",26,"none","",14,"BI2A00020","maybe no",-1,4096,"india"
"399","animal","A2C7UETA9SL9SK","college_bachDegree",NA,"asian_eastAsian","female",26,"none","",15,"BI2A00009","probably yes",2,1309,"india"
"400","animal","A2C7UETA9SL9SK","college_bachDegree",NA,"asian_eastAsian","female",26,"none","",16,"BI2A00038","definitely no",-3,1515,"india"
"401","animal","A2C7UETA9SL9SK","college_bachDegree",NA,"asian_eastAsian","female",26,"none","",17,"BI2A00001","probably yes",2,1631,"india"
"402","animal","A2C7UETA9SL9SK","college_bachDegree",NA,"asian_eastAsian","female",26,"none","",18,"BI2A00035","definitely no",-3,1419,"india"
"403","animal","A2C7UETA9SL9SK","college_bachDegree",NA,"asian_eastAsian","female",26,"none","",19,"BI2A00028","maybe yes",1,2353,"india"
"404","animal","A2C7UETA9SL9SK","college_bachDegree",NA,"asian_eastAsian","female",26,"none","",20,"BI2A00017","maybe no",-1,2363,"india"
"405","animal","A2C7UETA9SL9SK","college_bachDegree",NA,"asian_eastAsian","female",26,"none","",21,"BI2A00044","definitely no",-3,1349,"india"
"406","animal","A2C7UETA9SL9SK","college_bachDegree",NA,"asian_eastAsian","female",26,"none","",22,"BI2A00029","equally yes/no",0,2511,"india"
"407","animal","A2C7UETA9SL9SK","college_bachDegree",NA,"asian_eastAsian","female",26,"none","",23,"BI2A00010","probably yes",2,1749,"india"
"408","animal","A2C7UETA9SL9SK","college_bachDegree",NA,"asian_eastAsian","female",26,"none","",24,"BI2A00022","probably yes",2,2306,"india"
"409","animal","A2C7UETA9SL9SK","college_bachDegree",NA,"asian_eastAsian","female",26,"none","",25,"BI2A00037","definitely no",-3,1782,"india"
"410","animal","A2C7UETA9SL9SK","college_bachDegree",NA,"asian_eastAsian","female",26,"none","",26,"BI2A00046","definitely no",-3,814,"india"
"411","animal","A2C7UETA9SL9SK","college_bachDegree",NA,"asian_eastAsian","female",26,"none","",27,"BI2A00048","definitely no",-3,750,"india"
"412","animal","A2C7UETA9SL9SK","college_bachDegree",NA,"asian_eastAsian","female",26,"none","",28,"BI2A00014","definitely yes",3,1474,"india"
"413","animal","A2C7UETA9SL9SK","college_bachDegree",NA,"asian_eastAsian","female",26,"none","",29,"BI2A00045","definitely no",-3,1075,"india"
"414","animal","A2C7UETA9SL9SK","college_bachDegree",NA,"asian_eastAsian","female",26,"none","",30,"BI2A00006","definitely yes",3,1537,"india"
"415","animal","A2C7UETA9SL9SK","college_bachDegree",NA,"asian_eastAsian","female",26,"none","",31,"BI2A00015","definitely yes",3,1020,"india"
"416","animal","A2C7UETA9SL9SK","college_bachDegree",NA,"asian_eastAsian","female",26,"none","",32,"BI2A00030","definitely no",-3,1233,"india"
"417","animal","A2C7UETA9SL9SK","college_bachDegree",NA,"asian_eastAsian","female",26,"none","",33,"BI2A00024","definitely yes",3,2055,"india"
"418","animal","A2C7UETA9SL9SK","college_bachDegree",NA,"asian_eastAsian","female",26,"none","",34,"BI2A00023","equally yes/no",0,2470,"india"
"419","animal","A2C7UETA9SL9SK","college_bachDegree",NA,"asian_eastAsian","female",26,"none","",35,"BI2A00004","probably yes",2,1256,"india"
"420","animal","A2C7UETA9SL9SK","college_bachDegree",NA,"asian_eastAsian","female",26,"none","",36,"BI2A00039","definitely no",-3,1184,"india"
"421","animal","A2C7UETA9SL9SK","college_bachDegree",NA,"asian_eastAsian","female",26,"none","",37,"BI2A00021","definitely no",-3,1192,"india"
"422","animal","A2C7UETA9SL9SK","college_bachDegree",NA,"asian_eastAsian","female",26,"none","",38,"BI2A00032","probably no",-2,2746,"india"
"423","animal","A2C7UETA9SL9SK","college_bachDegree",NA,"asian_eastAsian","female",26,"none","",39,"BI2A00040","definitely no",-3,1020,"india"
"424","animal","A2C7UETA9SL9SK","college_bachDegree",NA,"asian_eastAsian","female",26,"none","",40,"BI2A00025","definitely no",-3,2299,"india"
"425","animal","A2C7UETA9SL9SK","college_bachDegree",NA,"asian_eastAsian","female",26,"none","",41,"BI2A00011","definitely yes",3,1545,"india"
"426","animal","A2C7UETA9SL9SK","college_bachDegree",NA,"asian_eastAsian","female",26,"none","",42,"BI2A00036","definitely no",-3,1788,"india"
"427","animal","A2C7UETA9SL9SK","college_bachDegree",NA,"asian_eastAsian","female",26,"none","",43,"BI2A00008","definitely yes",3,1363,"india"
"428","animal","A2C7UETA9SL9SK","college_bachDegree",NA,"asian_eastAsian","female",26,"none","",44,"BI2A00033","probably no",-2,1805,"india"
"429","animal","A2C7UETA9SL9SK","college_bachDegree",NA,"asian_eastAsian","female",26,"none","",45,"BI2A00007","definitely yes",3,1309,"india"
"430","animal","A2C7UETA9SL9SK","college_bachDegree",NA,"asian_eastAsian","female",26,"none","",46,"BI2A00003","definitely yes",3,770,"india"
"431","animal","A2C7UETA9SL9SK","college_bachDegree",NA,"asian_eastAsian","female",26,"none","",47,"BI2A00034","maybe no",-1,3068,"india"
"432","animal","A2C7UETA9SL9SK","college_bachDegree",NA,"asian_eastAsian","female",26,"none","",48,"BI2A00043","definitely no",-3,2573,"india"
"433","animal","ARVXIBUCA8WDZ","hs_diploma",NA,"white","male",28,"none","",1,"BI2A00008","probably yes",2,3319,"india"
"434","animal","ARVXIBUCA8WDZ","hs_diploma",NA,"white","male",28,"none","",2,"BI2A00015","maybe yes",1,2670,"india"
"435","animal","ARVXIBUCA8WDZ","hs_diploma",NA,"white","male",28,"none","",3,"BI2A00036","definitely no",-3,2695,"india"
"436","animal","ARVXIBUCA8WDZ","hs_diploma",NA,"white","male",28,"none","",4,"BI2A00011","definitely yes",3,2039,"india"
"437","animal","ARVXIBUCA8WDZ","hs_diploma",NA,"white","male",28,"none","",5,"BI2A00012","definitely no",-3,2079,"india"
"438","animal","ARVXIBUCA8WDZ","hs_diploma",NA,"white","male",28,"none","",6,"BI2A00033","definitely no",-3,1095,"india"
"439","animal","ARVXIBUCA8WDZ","hs_diploma",NA,"white","male",28,"none","",7,"BI2A00001","probably yes",2,2175,"india"
"440","animal","ARVXIBUCA8WDZ","hs_diploma",NA,"white","male",28,"none","",8,"BI2A00034","probably no",-2,2263,"india"
"441","animal","ARVXIBUCA8WDZ","hs_diploma",NA,"white","male",28,"none","",9,"BI2A00041","probably no",-2,1815,"india"
"442","animal","ARVXIBUCA8WDZ","hs_diploma",NA,"white","male",28,"none","",10,"BI2A00018","definitely no",-3,1607,"india"
"443","animal","ARVXIBUCA8WDZ","hs_diploma",NA,"white","male",28,"none","",11,"BI2A00003","definitely yes",3,1159,"india"
"444","animal","ARVXIBUCA8WDZ","hs_diploma",NA,"white","male",28,"none","",12,"BI2A00042","definitely no",-3,1271,"india"
"445","animal","ARVXIBUCA8WDZ","hs_diploma",NA,"white","male",28,"none","",13,"BI2A00030","definitely no",-3,1543,"india"
"446","animal","ARVXIBUCA8WDZ","hs_diploma",NA,"white","male",28,"none","",14,"BI2A00013","probably yes",2,1263,"india"
"447","animal","ARVXIBUCA8WDZ","hs_diploma",NA,"white","male",28,"none","",15,"BI2A00040","definitely no",-3,918,"india"
"448","animal","ARVXIBUCA8WDZ","hs_diploma",NA,"white","male",28,"none","",16,"BI2A00006","definitely yes",3,1223,"india"
"449","animal","ARVXIBUCA8WDZ","hs_diploma",NA,"white","male",28,"none","",17,"BI2A00023","definitely no",-3,1047,"india"
"450","animal","ARVXIBUCA8WDZ","hs_diploma",NA,"white","male",28,"none","",18,"BI2A00028","definitely no",-3,895,"india"
"451","animal","ARVXIBUCA8WDZ","hs_diploma",NA,"white","male",28,"none","",19,"BI2A00010","maybe yes",1,1903,"india"
"452","animal","ARVXIBUCA8WDZ","hs_diploma",NA,"white","male",28,"none","",20,"BI2A00031","definitely no",-3,1071,"india"
"453","animal","ARVXIBUCA8WDZ","hs_diploma",NA,"white","male",28,"none","",21,"BI2A00032","definitely no",-3,1255,"india"
"454","animal","ARVXIBUCA8WDZ","hs_diploma",NA,"white","male",28,"none","",22,"BI2A00002","definitely yes",3,1430,"india"
"455","animal","ARVXIBUCA8WDZ","hs_diploma",NA,"white","male",28,"none","",23,"BI2A00019","probably yes",2,1168,"india"
"456","animal","ARVXIBUCA8WDZ","hs_diploma",NA,"white","male",28,"none","",24,"BI2A00007","probably yes",2,1727,"india"
"457","animal","ARVXIBUCA8WDZ","hs_diploma",NA,"white","male",28,"none","",25,"BI2A00043","definitely no",-3,1551,"india"
"458","animal","ARVXIBUCA8WDZ","hs_diploma",NA,"white","male",28,"none","",26,"BI2A00046","definitely no",-3,1886,"india"
"459","animal","ARVXIBUCA8WDZ","hs_diploma",NA,"white","male",28,"none","",27,"BI2A00009","probably yes",2,1887,"india"
"460","animal","ARVXIBUCA8WDZ","hs_diploma",NA,"white","male",28,"none","",28,"BI2A00045","definitely no",-3,1222,"india"
"461","animal","ARVXIBUCA8WDZ","hs_diploma",NA,"white","male",28,"none","",29,"BI2A00017","definitely no",-3,1167,"india"
"462","animal","ARVXIBUCA8WDZ","hs_diploma",NA,"white","male",28,"none","",30,"BI2A00022","probably no",-2,2855,"india"
"463","animal","ARVXIBUCA8WDZ","hs_diploma",NA,"white","male",28,"none","",31,"BI2A00025","probably no",-2,1166,"india"
"464","animal","ARVXIBUCA8WDZ","hs_diploma",NA,"white","male",28,"none","",32,"BI2A00027","definitely no",-3,1216,"india"
"465","animal","ARVXIBUCA8WDZ","hs_diploma",NA,"white","male",28,"none","",33,"BI2A00021","definitely no",-3,838,"india"
"466","animal","ARVXIBUCA8WDZ","hs_diploma",NA,"white","male",28,"none","",34,"BI2A00004","definitely yes",3,1352,"india"
"467","animal","ARVXIBUCA8WDZ","hs_diploma",NA,"white","male",28,"none","",35,"BI2A00026","maybe no",-1,1487,"india"
"468","animal","ARVXIBUCA8WDZ","hs_diploma",NA,"white","male",28,"none","",36,"BI2A00047","definitely no",-3,1142,"india"
"469","animal","ARVXIBUCA8WDZ","hs_diploma",NA,"white","male",28,"none","",37,"BI2A00038","definitely no",-3,824,"india"
"470","animal","ARVXIBUCA8WDZ","hs_diploma",NA,"white","male",28,"none","",38,"BI2A00035","definitely no",-3,710,"india"
"471","animal","ARVXIBUCA8WDZ","hs_diploma",NA,"white","male",28,"none","",39,"BI2A00014","maybe yes",1,2264,"india"
"472","animal","ARVXIBUCA8WDZ","hs_diploma",NA,"white","male",28,"none","",40,"BI2A00048","definitely no",-3,942,"india"
"473","animal","ARVXIBUCA8WDZ","hs_diploma",NA,"white","male",28,"none","",41,"BI2A00029","definitely no",-3,848,"india"
"474","animal","ARVXIBUCA8WDZ","hs_diploma",NA,"white","male",28,"none","",42,"BI2A00020","probably no",-2,1527,"india"
"475","animal","ARVXIBUCA8WDZ","hs_diploma",NA,"white","male",28,"none","",43,"BI2A00024","definitely yes",3,2558,"india"
"476","animal","ARVXIBUCA8WDZ","hs_diploma",NA,"white","male",28,"none","",44,"BI2A00005","definitely yes",3,1008,"india"
"477","animal","ARVXIBUCA8WDZ","hs_diploma",NA,"white","male",28,"none","",45,"BI2A00016","probably yes",2,2199,"india"
"478","animal","ARVXIBUCA8WDZ","hs_diploma",NA,"white","male",28,"none","",46,"BI2A00039","definitely no",-3,1016,"india"
"479","animal","ARVXIBUCA8WDZ","hs_diploma",NA,"white","male",28,"none","",47,"BI2A00044","definitely no",-3,663,"india"
"480","animal","ARVXIBUCA8WDZ","hs_diploma",NA,"white","male",28,"none","",48,"BI2A00037","definitely no",-3,951,"india"
"481","animal","A2RB4WF5CDMEL9","college_assocDegree",NA,"white","female",61,"none","Fun HIT, thanks!",1,"BI2A00024","probably yes",2,8244,"india"
"482","animal","A2RB4WF5CDMEL9","college_assocDegree",NA,"white","female",61,"none","Fun HIT, thanks!",2,"BI2A00027","probably yes",2,9712,"india"
"483","animal","A2RB4WF5CDMEL9","college_assocDegree",NA,"white","female",61,"none","Fun HIT, thanks!",3,"BI2A00029","probably no",-2,9128,"india"
"484","animal","A2RB4WF5CDMEL9","college_assocDegree",NA,"white","female",61,"none","Fun HIT, thanks!",4,"BI2A00017","maybe yes",1,7427,"india"
"485","animal","A2RB4WF5CDMEL9","college_assocDegree",NA,"white","female",61,"none","Fun HIT, thanks!",5,"BI2A00047","maybe yes",1,7302,"india"
"486","animal","A2RB4WF5CDMEL9","college_assocDegree",NA,"white","female",61,"none","Fun HIT, thanks!",6,"BI2A00034","maybe yes",1,5261,"india"
"487","animal","A2RB4WF5CDMEL9","college_assocDegree",NA,"white","female",61,"none","Fun HIT, thanks!",7,"BI2A00044","probably no",-2,6813,"india"
"488","animal","A2RB4WF5CDMEL9","college_assocDegree",NA,"white","female",61,"none","Fun HIT, thanks!",8,"BI2A00003","probably yes",2,7012,"india"
"489","animal","A2RB4WF5CDMEL9","college_assocDegree",NA,"white","female",61,"none","Fun HIT, thanks!",9,"BI2A00018","equally yes/no",0,5884,"india"
"490","animal","A2RB4WF5CDMEL9","college_assocDegree",NA,"white","female",61,"none","Fun HIT, thanks!",10,"BI2A00006","probably yes",2,3106,"india"
"491","animal","A2RB4WF5CDMEL9","college_assocDegree",NA,"white","female",61,"none","Fun HIT, thanks!",11,"BI2A00028","probably yes",2,2217,"india"
"492","animal","A2RB4WF5CDMEL9","college_assocDegree",NA,"white","female",61,"none","Fun HIT, thanks!",12,"BI2A00026","probably yes",2,1967,"india"
"493","animal","A2RB4WF5CDMEL9","college_assocDegree",NA,"white","female",61,"none","Fun HIT, thanks!",13,"BI2A00039","probably no",-2,2869,"india"
"494","animal","A2RB4WF5CDMEL9","college_assocDegree",NA,"white","female",61,"none","Fun HIT, thanks!",14,"BI2A00013","probably yes",2,2468,"india"
"495","animal","A2RB4WF5CDMEL9","college_assocDegree",NA,"white","female",61,"none","Fun HIT, thanks!",15,"BI2A00019","probably yes",2,1327,"india"
"496","animal","A2RB4WF5CDMEL9","college_assocDegree",NA,"white","female",61,"none","Fun HIT, thanks!",16,"BI2A00045","definitely no",-3,2530,"india"
"497","animal","A2RB4WF5CDMEL9","college_assocDegree",NA,"white","female",61,"none","Fun HIT, thanks!",17,"BI2A00001","probably yes",2,4909,"india"
"498","animal","A2RB4WF5CDMEL9","college_assocDegree",NA,"white","female",61,"none","Fun HIT, thanks!",18,"BI2A00004","probably yes",2,1866,"india"
"499","animal","A2RB4WF5CDMEL9","college_assocDegree",NA,"white","female",61,"none","Fun HIT, thanks!",19,"BI2A00030","equally yes/no",0,3956,"india"
"500","animal","A2RB4WF5CDMEL9","college_assocDegree",NA,"white","female",61,"none","Fun HIT, thanks!",20,"BI2A00046","definitely no",-3,2104,"india"
"501","animal","A2RB4WF5CDMEL9","college_assocDegree",NA,"white","female",61,"none","Fun HIT, thanks!",21,"BI2A00015","probably yes",2,2267,"india"
"502","animal","A2RB4WF5CDMEL9","college_assocDegree",NA,"white","female",61,"none","Fun HIT, thanks!",22,"BI2A00041","probably no",-2,3495,"india"
"503","animal","A2RB4WF5CDMEL9","college_assocDegree",NA,"white","female",61,"none","Fun HIT, thanks!",23,"BI2A00040","probably no",-2,3269,"india"
"504","animal","A2RB4WF5CDMEL9","college_assocDegree",NA,"white","female",61,"none","Fun HIT, thanks!",24,"BI2A00005","probably yes",2,2280,"india"
"505","animal","A2RB4WF5CDMEL9","college_assocDegree",NA,"white","female",61,"none","Fun HIT, thanks!",25,"BI2A00016","probably yes",2,1503,"india"
"506","animal","A2RB4WF5CDMEL9","college_assocDegree",NA,"white","female",61,"none","Fun HIT, thanks!",26,"BI2A00002","probably yes",2,1491,"india"
"507","animal","A2RB4WF5CDMEL9","college_assocDegree",NA,"white","female",61,"none","Fun HIT, thanks!",27,"BI2A00031","definitely no",-3,2079,"india"
"508","animal","A2RB4WF5CDMEL9","college_assocDegree",NA,"white","female",61,"none","Fun HIT, thanks!",28,"BI2A00020","equally yes/no",0,4886,"india"
"509","animal","A2RB4WF5CDMEL9","college_assocDegree",NA,"white","female",61,"none","Fun HIT, thanks!",29,"BI2A00048","definitely no",-3,2393,"india"
"510","animal","A2RB4WF5CDMEL9","college_assocDegree",NA,"white","female",61,"none","Fun HIT, thanks!",30,"BI2A00025","probably no",-2,3406,"india"
"511","animal","A2RB4WF5CDMEL9","college_assocDegree",NA,"white","female",61,"none","Fun HIT, thanks!",31,"BI2A00011","definitely yes",3,4071,"india"
"512","animal","A2RB4WF5CDMEL9","college_assocDegree",NA,"white","female",61,"none","Fun HIT, thanks!",32,"BI2A00023","maybe yes",1,2517,"india"
"513","animal","A2RB4WF5CDMEL9","college_assocDegree",NA,"white","female",61,"none","Fun HIT, thanks!",33,"BI2A00037","maybe no",-1,2504,"india"
"514","animal","A2RB4WF5CDMEL9","college_assocDegree",NA,"white","female",61,"none","Fun HIT, thanks!",34,"BI2A00008","maybe yes",1,2154,"india"
"515","animal","A2RB4WF5CDMEL9","college_assocDegree",NA,"white","female",61,"none","Fun HIT, thanks!",35,"BI2A00036","probably no",-2,2554,"india"
"516","animal","A2RB4WF5CDMEL9","college_assocDegree",NA,"white","female",61,"none","Fun HIT, thanks!",36,"BI2A00042","maybe yes",1,3055,"india"
"517","animal","A2RB4WF5CDMEL9","college_assocDegree",NA,"white","female",61,"none","Fun HIT, thanks!",37,"BI2A00038","definitely no",-3,2641,"india"
"518","animal","A2RB4WF5CDMEL9","college_assocDegree",NA,"white","female",61,"none","Fun HIT, thanks!",38,"BI2A00012","maybe yes",1,3381,"india"
"519","animal","A2RB4WF5CDMEL9","college_assocDegree",NA,"white","female",61,"none","Fun HIT, thanks!",39,"BI2A00007","maybe yes",1,2479,"india"
"520","animal","A2RB4WF5CDMEL9","college_assocDegree",NA,"white","female",61,"none","Fun HIT, thanks!",40,"BI2A00021","maybe no",-1,3156,"india"
"521","animal","A2RB4WF5CDMEL9","college_assocDegree",NA,"white","female",61,"none","Fun HIT, thanks!",41,"BI2A00032","equally yes/no",0,2267,"india"
"522","animal","A2RB4WF5CDMEL9","college_assocDegree",NA,"white","female",61,"none","Fun HIT, thanks!",42,"BI2A00033","equally yes/no",0,1465,"india"
"523","animal","A2RB4WF5CDMEL9","college_assocDegree",NA,"white","female",61,"none","Fun HIT, thanks!",43,"BI2A00009","maybe yes",1,2165,"india"
"524","animal","A2RB4WF5CDMEL9","college_assocDegree",NA,"white","female",61,"none","Fun HIT, thanks!",44,"BI2A00010","equally yes/no",0,3318,"india"
"525","animal","A2RB4WF5CDMEL9","college_assocDegree",NA,"white","female",61,"none","Fun HIT, thanks!",45,"BI2A00014","maybe yes",1,1940,"india"
"526","animal","A2RB4WF5CDMEL9","college_assocDegree",NA,"white","female",61,"none","Fun HIT, thanks!",46,"BI2A00022","maybe yes",1,1490,"india"
"527","animal","A2RB4WF5CDMEL9","college_assocDegree",NA,"white","female",61,"none","Fun HIT, thanks!",47,"BI2A00035","definitely no",-3,2003,"india"
"528","animal","A2RB4WF5CDMEL9","college_assocDegree",NA,"white","female",61,"none","Fun HIT, thanks!",48,"BI2A00043","maybe no",-1,4621,"india"
"529","animal","A1BQCRF5Q76YFY","hs_diploma",NA,"white","female",35,"christianity_protestant","",1,"BI2A00015","probably yes",2,5739,"india"
"530","animal","A1BQCRF5Q76YFY","hs_diploma",NA,"white","female",35,"christianity_protestant","",2,"BI2A00012","maybe no",-1,2641,"india"
"531","animal","A1BQCRF5Q76YFY","hs_diploma",NA,"white","female",35,"christianity_protestant","",3,"BI2A00040","definitely no",-3,1765,"india"
"532","animal","A1BQCRF5Q76YFY","hs_diploma",NA,"white","female",35,"christianity_protestant","",4,"BI2A00026","probably yes",2,3169,"india"
"533","animal","A1BQCRF5Q76YFY","hs_diploma",NA,"white","female",35,"christianity_protestant","",5,"BI2A00043","probably no",-2,5364,"india"
"534","animal","A1BQCRF5Q76YFY","hs_diploma",NA,"white","female",35,"christianity_protestant","",6,"BI2A00044","definitely no",-3,1484,"india"
"535","animal","A1BQCRF5Q76YFY","hs_diploma",NA,"white","female",35,"christianity_protestant","",7,"BI2A00034","definitely no",-3,1852,"india"
"536","animal","A1BQCRF5Q76YFY","hs_diploma",NA,"white","female",35,"christianity_protestant","",8,"BI2A00022","maybe yes",1,2234,"india"
"537","animal","A1BQCRF5Q76YFY","hs_diploma",NA,"white","female",35,"christianity_protestant","",9,"BI2A00029","definitely no",-3,3733,"india"
"538","animal","A1BQCRF5Q76YFY","hs_diploma",NA,"white","female",35,"christianity_protestant","",10,"BI2A00038","definitely no",-3,1453,"india"
"539","animal","A1BQCRF5Q76YFY","hs_diploma",NA,"white","female",35,"christianity_protestant","",11,"BI2A00010","probably yes",2,1972,"india"
"540","animal","A1BQCRF5Q76YFY","hs_diploma",NA,"white","female",35,"christianity_protestant","",12,"BI2A00046","definitely no",-3,1314,"india"
"541","animal","A1BQCRF5Q76YFY","hs_diploma",NA,"white","female",35,"christianity_protestant","",13,"BI2A00032","definitely no",-3,1904,"india"
"542","animal","A1BQCRF5Q76YFY","hs_diploma",NA,"white","female",35,"christianity_protestant","",14,"BI2A00021","definitely no",-3,1402,"india"
"543","animal","A1BQCRF5Q76YFY","hs_diploma",NA,"white","female",35,"christianity_protestant","",15,"BI2A00017","definitely no",-3,1081,"india"
"544","animal","A1BQCRF5Q76YFY","hs_diploma",NA,"white","female",35,"christianity_protestant","",16,"BI2A00041","definitely no",-3,3714,"india"
"545","animal","A1BQCRF5Q76YFY","hs_diploma",NA,"white","female",35,"christianity_protestant","",17,"BI2A00025","definitely no",-3,2618,"india"
"546","animal","A1BQCRF5Q76YFY","hs_diploma",NA,"white","female",35,"christianity_protestant","",18,"BI2A00007","definitely yes",3,1815,"india"
"547","animal","A1BQCRF5Q76YFY","hs_diploma",NA,"white","female",35,"christianity_protestant","",19,"BI2A00011","definitely yes",3,2037,"india"
"548","animal","A1BQCRF5Q76YFY","hs_diploma",NA,"white","female",35,"christianity_protestant","",20,"BI2A00048","definitely no",-3,1482,"india"
"549","animal","A1BQCRF5Q76YFY","hs_diploma",NA,"white","female",35,"christianity_protestant","",21,"BI2A00028","probably no",-2,3287,"india"
"550","animal","A1BQCRF5Q76YFY","hs_diploma",NA,"white","female",35,"christianity_protestant","",22,"BI2A00018","definitely no",-3,1384,"india"
"551","animal","A1BQCRF5Q76YFY","hs_diploma",NA,"white","female",35,"christianity_protestant","",23,"BI2A00013","maybe no",-1,3400,"india"
"552","animal","A1BQCRF5Q76YFY","hs_diploma",NA,"white","female",35,"christianity_protestant","",24,"BI2A00024","probably yes",2,5198,"india"
"553","animal","A1BQCRF5Q76YFY","hs_diploma",NA,"white","female",35,"christianity_protestant","",25,"BI2A00035","definitely no",-3,1483,"india"
"554","animal","A1BQCRF5Q76YFY","hs_diploma",NA,"white","female",35,"christianity_protestant","",26,"BI2A00031","definitely no",-3,855,"india"
"555","animal","A1BQCRF5Q76YFY","hs_diploma",NA,"white","female",35,"christianity_protestant","",27,"BI2A00008","definitely yes",3,3128,"india"
"556","animal","A1BQCRF5Q76YFY","hs_diploma",NA,"white","female",35,"christianity_protestant","",28,"BI2A00005","definitely yes",3,1043,"india"
"557","animal","A1BQCRF5Q76YFY","hs_diploma",NA,"white","female",35,"christianity_protestant","",29,"BI2A00037","definitely no",-3,1933,"india"
"558","animal","A1BQCRF5Q76YFY","hs_diploma",NA,"white","female",35,"christianity_protestant","",30,"BI2A00014","definitely no",-3,2299,"india"
"559","animal","A1BQCRF5Q76YFY","hs_diploma",NA,"white","female",35,"christianity_protestant","",31,"BI2A00036","definitely no",-3,1019,"india"
"560","animal","A1BQCRF5Q76YFY","hs_diploma",NA,"white","female",35,"christianity_protestant","",32,"BI2A00023","definitely no",-3,2331,"india"
"561","animal","A1BQCRF5Q76YFY","hs_diploma",NA,"white","female",35,"christianity_protestant","",33,"BI2A00006","definitely yes",3,1702,"india"
"562","animal","A1BQCRF5Q76YFY","hs_diploma",NA,"white","female",35,"christianity_protestant","",34,"BI2A00019","definitely yes",3,1299,"india"
"563","animal","A1BQCRF5Q76YFY","hs_diploma",NA,"white","female",35,"christianity_protestant","",35,"BI2A00042","definitely no",-3,2016,"india"
"564","animal","A1BQCRF5Q76YFY","hs_diploma",NA,"white","female",35,"christianity_protestant","",36,"BI2A00003","definitely yes",3,2902,"india"
"565","animal","A1BQCRF5Q76YFY","hs_diploma",NA,"white","female",35,"christianity_protestant","",37,"BI2A00033","definitely no",-3,1335,"india"
"566","animal","A1BQCRF5Q76YFY","hs_diploma",NA,"white","female",35,"christianity_protestant","",38,"BI2A00016","maybe yes",1,5575,"india"
"567","animal","A1BQCRF5Q76YFY","hs_diploma",NA,"white","female",35,"christianity_protestant","",39,"BI2A00045","definitely no",-3,1354,"india"
"568","animal","A1BQCRF5Q76YFY","hs_diploma",NA,"white","female",35,"christianity_protestant","",40,"BI2A00009","definitely yes",3,2066,"india"
"569","animal","A1BQCRF5Q76YFY","hs_diploma",NA,"white","female",35,"christianity_protestant","",41,"BI2A00001","definitely yes",3,1772,"india"
"570","animal","A1BQCRF5Q76YFY","hs_diploma",NA,"white","female",35,"christianity_protestant","",42,"BI2A00027","definitely no",-3,1729,"india"
"571","animal","A1BQCRF5Q76YFY","hs_diploma",NA,"white","female",35,"christianity_protestant","",43,"BI2A00047","definitely no",-3,806,"india"
"572","animal","A1BQCRF5Q76YFY","hs_diploma",NA,"white","female",35,"christianity_protestant","",44,"BI2A00004","definitely yes",3,1530,"india"
"573","animal","A1BQCRF5Q76YFY","hs_diploma",NA,"white","female",35,"christianity_protestant","",45,"BI2A00020","definitely no",-3,2850,"india"
"574","animal","A1BQCRF5Q76YFY","hs_diploma",NA,"white","female",35,"christianity_protestant","",46,"BI2A00002","definitely yes",3,1567,"india"
"575","animal","A1BQCRF5Q76YFY","hs_diploma",NA,"white","female",35,"christianity_protestant","",47,"BI2A00030","definitely no",-3,1432,"india"
"576","animal","A1BQCRF5Q76YFY","hs_diploma",NA,"white","female",35,"christianity_protestant","",48,"BI2A00039","definitely no",-3,805,"india"
"577","animal","A4T1X0PO5N1G9","grad_some",NA,"white","female",31,"none","",1,"BI2A00028","definitely yes",3,9779,"india"
"578","animal","A4T1X0PO5N1G9","grad_some",NA,"white","female",31,"none","",2,"BI2A00043","definitely yes",3,4390,"india"
"579","animal","A4T1X0PO5N1G9","grad_some",NA,"white","female",31,"none","",3,"BI2A00025","definitely yes",3,3436,"india"
"580","animal","A4T1X0PO5N1G9","grad_some",NA,"white","female",31,"none","",4,"BI2A00008","definitely yes",3,2412,"india"
"581","animal","A4T1X0PO5N1G9","grad_some",NA,"white","female",31,"none","",5,"BI2A00014","maybe yes",1,3957,"india"
"582","animal","A4T1X0PO5N1G9","grad_some",NA,"white","female",31,"none","",6,"BI2A00034","maybe yes",1,3803,"india"
"583","animal","A4T1X0PO5N1G9","grad_some",NA,"white","female",31,"none","",7,"BI2A00031","maybe yes",1,2116,"india"
"584","animal","A4T1X0PO5N1G9","grad_some",NA,"white","female",31,"none","",8,"BI2A00047","definitely no",-3,1432,"india"
"585","animal","A4T1X0PO5N1G9","grad_some",NA,"white","female",31,"none","",9,"BI2A00007","probably yes",2,1764,"india"
"586","animal","A4T1X0PO5N1G9","grad_some",NA,"white","female",31,"none","",10,"BI2A00021","probably no",-2,2171,"india"
"587","animal","A4T1X0PO5N1G9","grad_some",NA,"white","female",31,"none","",11,"BI2A00033","definitely no",-3,1480,"india"
"588","animal","A4T1X0PO5N1G9","grad_some",NA,"white","female",31,"none","",12,"BI2A00022","probably no",-2,2368,"india"
"589","animal","A4T1X0PO5N1G9","grad_some",NA,"white","female",31,"none","",13,"BI2A00006","probably yes",2,1853,"india"
"590","animal","A4T1X0PO5N1G9","grad_some",NA,"white","female",31,"none","",14,"BI2A00037","definitely no",-3,1717,"india"
"591","animal","A4T1X0PO5N1G9","grad_some",NA,"white","female",31,"none","",15,"BI2A00016","maybe yes",1,5023,"india"
"592","animal","A4T1X0PO5N1G9","grad_some",NA,"white","female",31,"none","",16,"BI2A00023","definitely no",-3,1839,"india"
"593","animal","A4T1X0PO5N1G9","grad_some",NA,"white","female",31,"none","",17,"BI2A00020","probably no",-2,2098,"india"
"594","animal","A4T1X0PO5N1G9","grad_some",NA,"white","female",31,"none","",18,"BI2A00044","definitely no",-3,1495,"india"
"595","animal","A4T1X0PO5N1G9","grad_some",NA,"white","female",31,"none","",19,"BI2A00036","definitely no",-3,1377,"india"
"596","animal","A4T1X0PO5N1G9","grad_some",NA,"white","female",31,"none","",20,"BI2A00026","definitely no",-3,1502,"india"
"597","animal","A4T1X0PO5N1G9","grad_some",NA,"white","female",31,"none","",21,"BI2A00039","definitely no",-3,1061,"india"
"598","animal","A4T1X0PO5N1G9","grad_some",NA,"white","female",31,"none","",22,"BI2A00032","definitely no",-3,922,"india"
"599","animal","A4T1X0PO5N1G9","grad_some",NA,"white","female",31,"none","",23,"BI2A00019","probably yes",2,1725,"india"
"600","animal","A4T1X0PO5N1G9","grad_some",NA,"white","female",31,"none","",24,"BI2A00018","equally yes/no",0,3551,"india"
"601","animal","A4T1X0PO5N1G9","grad_some",NA,"white","female",31,"none","",25,"BI2A00012","maybe no",-1,2289,"india"
"602","animal","A4T1X0PO5N1G9","grad_some",NA,"white","female",31,"none","",26,"BI2A00040","definitely no",-3,1377,"india"
"603","animal","A4T1X0PO5N1G9","grad_some",NA,"white","female",31,"none","",27,"BI2A00041","definitely no",-3,914,"india"
"604","animal","A4T1X0PO5N1G9","grad_some",NA,"white","female",31,"none","",28,"BI2A00046","definitely no",-3,1554,"india"
"605","animal","A4T1X0PO5N1G9","grad_some",NA,"white","female",31,"none","",29,"BI2A00004","definitely no",-3,1029,"india"
"606","animal","A4T1X0PO5N1G9","grad_some",NA,"white","female",31,"none","",30,"BI2A00010","definitely no",-3,447,"india"
"607","animal","A4T1X0PO5N1G9","grad_some",NA,"white","female",31,"none","",31,"BI2A00001","definitely yes",3,1961,"india"
"608","animal","A4T1X0PO5N1G9","grad_some",NA,"white","female",31,"none","",32,"BI2A00015","maybe yes",1,1200,"india"
"609","animal","A4T1X0PO5N1G9","grad_some",NA,"white","female",31,"none","",33,"BI2A00011","maybe yes",1,1526,"india"
"610","animal","A4T1X0PO5N1G9","grad_some",NA,"white","female",31,"none","",34,"BI2A00024","definitely yes",3,1687,"india"
"611","animal","A4T1X0PO5N1G9","grad_some",NA,"white","female",31,"none","",35,"BI2A00035","definitely no",-3,1654,"india"
"612","animal","A4T1X0PO5N1G9","grad_some",NA,"white","female",31,"none","",36,"BI2A00038","definitely no",-3,1275,"india"
"613","animal","A4T1X0PO5N1G9","grad_some",NA,"white","female",31,"none","",37,"BI2A00017","definitely no",-3,1366,"india"
"614","animal","A4T1X0PO5N1G9","grad_some",NA,"white","female",31,"none","",38,"BI2A00027","definitely no",-3,964,"india"
"615","animal","A4T1X0PO5N1G9","grad_some",NA,"white","female",31,"none","",39,"BI2A00042","definitely no",-3,1110,"india"
"616","animal","A4T1X0PO5N1G9","grad_some",NA,"white","female",31,"none","",40,"BI2A00029","definitely no",-3,1334,"india"
"617","animal","A4T1X0PO5N1G9","grad_some",NA,"white","female",31,"none","",41,"BI2A00002","maybe yes",1,1706,"india"
"618","animal","A4T1X0PO5N1G9","grad_some",NA,"white","female",31,"none","",42,"BI2A00003","definitely yes",3,1734,"india"
"619","animal","A4T1X0PO5N1G9","grad_some",NA,"white","female",31,"none","",43,"BI2A00030","definitely no",-3,1739,"india"
"620","animal","A4T1X0PO5N1G9","grad_some",NA,"white","female",31,"none","",44,"BI2A00013","maybe no",-1,1888,"india"
"621","animal","A4T1X0PO5N1G9","grad_some",NA,"white","female",31,"none","",45,"BI2A00048","definitely no",-3,1518,"india"
"622","animal","A4T1X0PO5N1G9","grad_some",NA,"white","female",31,"none","",46,"BI2A00005","probably yes",2,2629,"india"
"623","animal","A4T1X0PO5N1G9","grad_some",NA,"white","female",31,"none","",47,"BI2A00009","probably yes",2,353,"india"
"624","animal","A4T1X0PO5N1G9","grad_some",NA,"white","female",31,"none","",48,"BI2A00045","definitely no",-3,1426,"india"
"625","animal","A5EU1AQJNC7F2","hs_diploma",NA,"white","female",26,"NA","that was interesting!",1,"BI2A00046","definitely no",-3,6630,"india"
"626","animal","A5EU1AQJNC7F2","hs_diploma",NA,"white","female",26,"NA","that was interesting!",2,"BI2A00004","definitely yes",3,2536,"india"
"627","animal","A5EU1AQJNC7F2","hs_diploma",NA,"white","female",26,"NA","that was interesting!",3,"BI2A00010","definitely yes",3,2180,"india"
"628","animal","A5EU1AQJNC7F2","hs_diploma",NA,"white","female",26,"NA","that was interesting!",4,"BI2A00040","definitely no",-3,1407,"india"
"629","animal","A5EU1AQJNC7F2","hs_diploma",NA,"white","female",26,"NA","that was interesting!",5,"BI2A00030","definitely no",-3,924,"india"
"630","animal","A5EU1AQJNC7F2","hs_diploma",NA,"white","female",26,"NA","that was interesting!",6,"BI2A00042","definitely no",-3,1165,"india"
"631","animal","A5EU1AQJNC7F2","hs_diploma",NA,"white","female",26,"NA","that was interesting!",7,"BI2A00013","definitely yes",3,1216,"india"
"632","animal","A5EU1AQJNC7F2","hs_diploma",NA,"white","female",26,"NA","that was interesting!",8,"BI2A00043","probably no",-2,2434,"india"
"633","animal","A5EU1AQJNC7F2","hs_diploma",NA,"white","female",26,"NA","that was interesting!",9,"BI2A00032","definitely no",-3,1687,"india"
"634","animal","A5EU1AQJNC7F2","hs_diploma",NA,"white","female",26,"NA","that was interesting!",10,"BI2A00009","definitely yes",3,1773,"india"
"635","animal","A5EU1AQJNC7F2","hs_diploma",NA,"white","female",26,"NA","that was interesting!",11,"BI2A00035","definitely no",-3,1267,"india"
"636","animal","A5EU1AQJNC7F2","hs_diploma",NA,"white","female",26,"NA","that was interesting!",12,"BI2A00016","equally yes/no",0,2920,"india"
"637","animal","A5EU1AQJNC7F2","hs_diploma",NA,"white","female",26,"NA","that was interesting!",13,"BI2A00037","definitely no",-3,1406,"india"
"638","animal","A5EU1AQJNC7F2","hs_diploma",NA,"white","female",26,"NA","that was interesting!",14,"BI2A00025","definitely no",-3,912,"india"
"639","animal","A5EU1AQJNC7F2","hs_diploma",NA,"white","female",26,"NA","that was interesting!",15,"BI2A00045","definitely no",-3,730,"india"
"640","animal","A5EU1AQJNC7F2","hs_diploma",NA,"white","female",26,"NA","that was interesting!",16,"BI2A00044","definitely no",-3,708,"india"
"641","animal","A5EU1AQJNC7F2","hs_diploma",NA,"white","female",26,"NA","that was interesting!",17,"BI2A00002","definitely yes",3,1457,"india"
"642","animal","A5EU1AQJNC7F2","hs_diploma",NA,"white","female",26,"NA","that was interesting!",18,"BI2A00007","definitely yes",3,760,"india"
"643","animal","A5EU1AQJNC7F2","hs_diploma",NA,"white","female",26,"NA","that was interesting!",19,"BI2A00041","definitely no",-3,1241,"india"
"644","animal","A5EU1AQJNC7F2","hs_diploma",NA,"white","female",26,"NA","that was interesting!",20,"BI2A00031","definitely no",-3,619,"india"
"645","animal","A5EU1AQJNC7F2","hs_diploma",NA,"white","female",26,"NA","that was interesting!",21,"BI2A00014","definitely yes",3,2271,"india"
"646","animal","A5EU1AQJNC7F2","hs_diploma",NA,"white","female",26,"NA","that was interesting!",22,"BI2A00038","definitely no",-3,1177,"india"
"647","animal","A5EU1AQJNC7F2","hs_diploma",NA,"white","female",26,"NA","that was interesting!",23,"BI2A00011","definitely yes",3,1610,"india"
"648","animal","A5EU1AQJNC7F2","hs_diploma",NA,"white","female",26,"NA","that was interesting!",24,"BI2A00029","probably no",-2,2119,"india"
"649","animal","A5EU1AQJNC7F2","hs_diploma",NA,"white","female",26,"NA","that was interesting!",25,"BI2A00024","definitely yes",3,1483,"india"
"650","animal","A5EU1AQJNC7F2","hs_diploma",NA,"white","female",26,"NA","that was interesting!",26,"BI2A00034","definitely no",-3,2192,"india"
"651","animal","A5EU1AQJNC7F2","hs_diploma",NA,"white","female",26,"NA","that was interesting!",27,"BI2A00022","maybe yes",1,2246,"india"
"652","animal","A5EU1AQJNC7F2","hs_diploma",NA,"white","female",26,"NA","that was interesting!",28,"BI2A00006","definitely yes",3,1124,"india"
"653","animal","A5EU1AQJNC7F2","hs_diploma",NA,"white","female",26,"NA","that was interesting!",29,"BI2A00021","definitely no",-3,1178,"india"
"654","animal","A5EU1AQJNC7F2","hs_diploma",NA,"white","female",26,"NA","that was interesting!",30,"BI2A00003","definitely yes",3,1231,"india"
"655","animal","A5EU1AQJNC7F2","hs_diploma",NA,"white","female",26,"NA","that was interesting!",31,"BI2A00036","definitely no",-3,1240,"india"
"656","animal","A5EU1AQJNC7F2","hs_diploma",NA,"white","female",26,"NA","that was interesting!",32,"BI2A00015","probably yes",2,1535,"india"
"657","animal","A5EU1AQJNC7F2","hs_diploma",NA,"white","female",26,"NA","that was interesting!",33,"BI2A00028","maybe yes",1,2360,"india"
"658","animal","A5EU1AQJNC7F2","hs_diploma",NA,"white","female",26,"NA","that was interesting!",34,"BI2A00039","definitely no",-3,1062,"india"
"659","animal","A5EU1AQJNC7F2","hs_diploma",NA,"white","female",26,"NA","that was interesting!",35,"BI2A00017","definitely no",-3,1000,"india"
"660","animal","A5EU1AQJNC7F2","hs_diploma",NA,"white","female",26,"NA","that was interesting!",36,"BI2A00023","definitely no",-3,989,"india"
"661","animal","A5EU1AQJNC7F2","hs_diploma",NA,"white","female",26,"NA","that was interesting!",37,"BI2A00020","definitely no",-3,1268,"india"
"662","animal","A5EU1AQJNC7F2","hs_diploma",NA,"white","female",26,"NA","that was interesting!",38,"BI2A00047","definitely no",-3,962,"india"
"663","animal","A5EU1AQJNC7F2","hs_diploma",NA,"white","female",26,"NA","that was interesting!",39,"BI2A00033","definitely no",-3,1115,"india"
"664","animal","A5EU1AQJNC7F2","hs_diploma",NA,"white","female",26,"NA","that was interesting!",40,"BI2A00019","definitely yes",3,1816,"india"
"665","animal","A5EU1AQJNC7F2","hs_diploma",NA,"white","female",26,"NA","that was interesting!",41,"BI2A00001","definitely yes",3,720,"india"
"666","animal","A5EU1AQJNC7F2","hs_diploma",NA,"white","female",26,"NA","that was interesting!",42,"BI2A00027","definitely no",-3,1866,"india"
"667","animal","A5EU1AQJNC7F2","hs_diploma",NA,"white","female",26,"NA","that was interesting!",43,"BI2A00048","definitely no",-3,706,"india"
"668","animal","A5EU1AQJNC7F2","hs_diploma",NA,"white","female",26,"NA","that was interesting!",44,"BI2A00026","maybe yes",1,1599,"india"
"669","animal","A5EU1AQJNC7F2","hs_diploma",NA,"white","female",26,"NA","that was interesting!",45,"BI2A00012","definitely no",-3,2007,"india"
"670","animal","A5EU1AQJNC7F2","hs_diploma",NA,"white","female",26,"NA","that was interesting!",46,"BI2A00008","definitely yes",3,1199,"india"
"671","animal","A5EU1AQJNC7F2","hs_diploma",NA,"white","female",26,"NA","that was interesting!",47,"BI2A00018","maybe yes",1,2166,"india"
"672","animal","A5EU1AQJNC7F2","hs_diploma",NA,"white","female",26,"NA","that was interesting!",48,"BI2A00005","definitely yes",3,1200,"india"
"673","animal","A30RCE2JIAF9EV","college_bachDegree",NA,"white","male",37,"christianity_protestant","",1,"BI2A00028","maybe yes",1,5708,"india"
"674","animal","A30RCE2JIAF9EV","college_bachDegree",NA,"white","male",37,"christianity_protestant","",2,"BI2A00040","probably no",-2,2870,"india"
"675","animal","A30RCE2JIAF9EV","college_bachDegree",NA,"white","male",37,"christianity_protestant","",3,"BI2A00014","probably no",-2,2386,"india"
"676","animal","A30RCE2JIAF9EV","college_bachDegree",NA,"white","male",37,"christianity_protestant","",4,"BI2A00016","probably yes",2,2232,"india"
"677","animal","A30RCE2JIAF9EV","college_bachDegree",NA,"white","male",37,"christianity_protestant","",5,"BI2A00038","probably no",-2,2611,"india"
"678","animal","A30RCE2JIAF9EV","college_bachDegree",NA,"white","male",37,"christianity_protestant","",6,"BI2A00034","probably no",-2,2052,"india"
"679","animal","A30RCE2JIAF9EV","college_bachDegree",NA,"white","male",37,"christianity_protestant","",7,"BI2A00046","definitely no",-3,3435,"india"
"680","animal","A30RCE2JIAF9EV","college_bachDegree",NA,"white","male",37,"christianity_protestant","",8,"BI2A00044","definitely no",-3,1331,"india"
"681","animal","A30RCE2JIAF9EV","college_bachDegree",NA,"white","male",37,"christianity_protestant","",9,"BI2A00011","definitely yes",3,2844,"india"
"682","animal","A30RCE2JIAF9EV","college_bachDegree",NA,"white","male",37,"christianity_protestant","",10,"BI2A00002","probably yes",2,1804,"india"
"683","animal","A30RCE2JIAF9EV","college_bachDegree",NA,"white","male",37,"christianity_protestant","",11,"BI2A00045","definitely no",-3,1513,"india"
"684","animal","A30RCE2JIAF9EV","college_bachDegree",NA,"white","male",37,"christianity_protestant","",12,"BI2A00039","definitely no",-3,1450,"india"
"685","animal","A30RCE2JIAF9EV","college_bachDegree",NA,"white","male",37,"christianity_protestant","",13,"BI2A00047","probably no",-2,2348,"india"
"686","animal","A30RCE2JIAF9EV","college_bachDegree",NA,"white","male",37,"christianity_protestant","",14,"BI2A00020","probably yes",2,4520,"india"
"687","animal","A30RCE2JIAF9EV","college_bachDegree",NA,"white","male",37,"christianity_protestant","",15,"BI2A00031","definitely no",-3,2268,"india"
"688","animal","A30RCE2JIAF9EV","college_bachDegree",NA,"white","male",37,"christianity_protestant","",16,"BI2A00041","definitely no",-3,4169,"india"
"689","animal","A30RCE2JIAF9EV","college_bachDegree",NA,"white","male",37,"christianity_protestant","",17,"BI2A00037","probably no",-2,2042,"india"
"690","animal","A30RCE2JIAF9EV","college_bachDegree",NA,"white","male",37,"christianity_protestant","",18,"BI2A00015","maybe yes",1,2688,"india"
"691","animal","A30RCE2JIAF9EV","college_bachDegree",NA,"white","male",37,"christianity_protestant","",19,"BI2A00004","probably yes",2,1403,"india"
"692","animal","A30RCE2JIAF9EV","college_bachDegree",NA,"white","male",37,"christianity_protestant","",20,"BI2A00018","maybe yes",1,3887,"india"
"693","animal","A30RCE2JIAF9EV","college_bachDegree",NA,"white","male",37,"christianity_protestant","",21,"BI2A00030","equally yes/no",0,2281,"india"
"694","animal","A30RCE2JIAF9EV","college_bachDegree",NA,"white","male",37,"christianity_protestant","",22,"BI2A00029","maybe no",-1,1801,"india"
"695","animal","A30RCE2JIAF9EV","college_bachDegree",NA,"white","male",37,"christianity_protestant","",23,"BI2A00022","maybe no",-1,2244,"india"
"696","animal","A30RCE2JIAF9EV","college_bachDegree",NA,"white","male",37,"christianity_protestant","",24,"BI2A00036","probably no",-2,1955,"india"
"697","animal","A30RCE2JIAF9EV","college_bachDegree",NA,"white","male",37,"christianity_protestant","",25,"BI2A00024","probably yes",2,1993,"india"
"698","animal","A30RCE2JIAF9EV","college_bachDegree",NA,"white","male",37,"christianity_protestant","",26,"BI2A00003","probably yes",2,914,"india"
"699","animal","A30RCE2JIAF9EV","college_bachDegree",NA,"white","male",37,"christianity_protestant","",27,"BI2A00001","probably yes",2,855,"india"
"700","animal","A30RCE2JIAF9EV","college_bachDegree",NA,"white","male",37,"christianity_protestant","",28,"BI2A00007","probably yes",2,914,"india"
"701","animal","A30RCE2JIAF9EV","college_bachDegree",NA,"white","male",37,"christianity_protestant","",29,"BI2A00012","probably yes",2,3249,"india"
"702","animal","A30RCE2JIAF9EV","college_bachDegree",NA,"white","male",37,"christianity_protestant","",30,"BI2A00048","definitely no",-3,2250,"india"
"703","animal","A30RCE2JIAF9EV","college_bachDegree",NA,"white","male",37,"christianity_protestant","",31,"BI2A00010","maybe no",-1,2017,"india"
"704","animal","A30RCE2JIAF9EV","college_bachDegree",NA,"white","male",37,"christianity_protestant","",32,"BI2A00013","probably yes",2,1466,"india"
"705","animal","A30RCE2JIAF9EV","college_bachDegree",NA,"white","male",37,"christianity_protestant","",33,"BI2A00043","equally yes/no",0,2714,"india"
"706","animal","A30RCE2JIAF9EV","college_bachDegree",NA,"white","male",37,"christianity_protestant","",34,"BI2A00025","maybe yes",1,1706,"india"
"707","animal","A30RCE2JIAF9EV","college_bachDegree",NA,"white","male",37,"christianity_protestant","",35,"BI2A00027","maybe no",-1,1690,"india"
"708","animal","A30RCE2JIAF9EV","college_bachDegree",NA,"white","male",37,"christianity_protestant","",36,"BI2A00008","definitely yes",3,2241,"india"
"709","animal","A30RCE2JIAF9EV","college_bachDegree",NA,"white","male",37,"christianity_protestant","",37,"BI2A00023","maybe no",-1,2978,"india"
"710","animal","A30RCE2JIAF9EV","college_bachDegree",NA,"white","male",37,"christianity_protestant","",38,"BI2A00042","equally yes/no",0,3402,"india"
"711","animal","A30RCE2JIAF9EV","college_bachDegree",NA,"white","male",37,"christianity_protestant","",39,"BI2A00033","maybe no",-1,1458,"india"
"712","animal","A30RCE2JIAF9EV","college_bachDegree",NA,"white","male",37,"christianity_protestant","",40,"BI2A00017","maybe no",-1,1371,"india"
"713","animal","A30RCE2JIAF9EV","college_bachDegree",NA,"white","male",37,"christianity_protestant","",41,"BI2A00006","probably yes",2,1595,"india"
"714","animal","A30RCE2JIAF9EV","college_bachDegree",NA,"white","male",37,"christianity_protestant","",42,"BI2A00032","maybe yes",1,1579,"india"
"715","animal","A30RCE2JIAF9EV","college_bachDegree",NA,"white","male",37,"christianity_protestant","",43,"BI2A00005","probably yes",2,1259,"india"
"716","animal","A30RCE2JIAF9EV","college_bachDegree",NA,"white","male",37,"christianity_protestant","",44,"BI2A00026","probably yes",2,1058,"india"
"717","animal","A30RCE2JIAF9EV","college_bachDegree",NA,"white","male",37,"christianity_protestant","",45,"BI2A00019","probably yes",2,790,"india"
"718","animal","A30RCE2JIAF9EV","college_bachDegree",NA,"white","male",37,"christianity_protestant","",46,"BI2A00021","maybe no",-1,1679,"india"
"719","animal","A30RCE2JIAF9EV","college_bachDegree",NA,"white","male",37,"christianity_protestant","",47,"BI2A00035","definitely no",-3,1913,"india"
"720","animal","A30RCE2JIAF9EV","college_bachDegree",NA,"white","male",37,"christianity_protestant","",48,"BI2A00009","maybe yes",1,3479,"india"
"721","animal","A1ODGBU73JE8S","college_assocDegree",NA,"white","female",38,"christianity_catholic","",1,"BI2A00022","probably yes",2,4180,"india"
"722","animal","A1ODGBU73JE8S","college_assocDegree",NA,"white","female",38,"christianity_catholic","",2,"BI2A00025","definitely yes",3,2074,"india"
