,condition,worker_id,education,english_native,ethnicity,gender,age,religion,comp_check,comments,trialNum,swatch,response,responseCoded,rt,country,comp_filter193,sense,A11309DDKSLTVL,grad_some,NA,asian_southAsian,male,57,christianity_protestant,This is capable of sensing nearby things. ," Most of the images shown are animal fur ,closeups... I have marked ' NO ' taking in to account of   the image shown. only and not of the animal ..",1,BI2A00007,definitely no,-3,16119,india,drop194,sense,A11309DDKSLTVL,grad_some,NA,asian_southAsian,male,57,christianity_protestant,This is capable of sensing nearby things. ," Most of the images shown are animal fur ,closeups... I have marked ' NO ' taking in to account of   the image shown. only and not of the animal ..",2,BI2A00005,definitely no,-3,7838,india,drop195,sense,A11309DDKSLTVL,grad_some,NA,asian_southAsian,male,57,christianity_protestant,This is capable of sensing nearby things. ," Most of the images shown are animal fur ,closeups... I have marked ' NO ' taking in to account of   the image shown. only and not of the animal ..",3,BI2A00048,definitely no,-3,1240,india,drop196,sense,A11309DDKSLTVL,grad_some,NA,asian_southAsian,male,57,christianity_protestant,This is capable of sensing nearby things. ," Most of the images shown are animal fur ,closeups... I have marked ' NO ' taking in to account of   the image shown. only and not of the animal ..",4,BI2A00041,definitely no,-3,2051,india,drop197,sense,A11309DDKSLTVL,grad_some,NA,asian_southAsian,male,57,christianity_protestant,This is capable of sensing nearby things. ," Most of the images shown are animal fur ,closeups... I have marked ' NO ' taking in to account of   the image shown. only and not of the animal ..",5,BI2A00003,definitely no,-3,1368,india,drop198,sense,A11309DDKSLTVL,grad_some,NA,asian_southAsian,male,57,christianity_protestant,This is capable of sensing nearby things. ," Most of the images shown are animal fur ,closeups... I have marked ' NO ' taking in to account of   the image shown. only and not of the animal ..",6,BI2A00047,definitely no,-3,1328,india,drop199,sense,A11309DDKSLTVL,grad_some,NA,asian_southAsian,male,57,christianity_protestant,This is capable of sensing nearby things. ," Most of the images shown are animal fur ,closeups... I have marked ' NO ' taking in to account of   the image shown. only and not of the animal ..",7,BI2A00024,probably no,-2,10556,india,drop200,sense,A11309DDKSLTVL,grad_some,NA,asian_southAsian,male,57,christianity_protestant,This is capable of sensing nearby things. ," Most of the images shown are animal fur ,closeups... I have marked ' NO ' taking in to account of   the image shown. only and not of the animal ..",8,BI2A00029,definitely no,-3,1744,india,drop201,sense,A11309DDKSLTVL,grad_some,NA,asian_southAsian,male,57,christianity_protestant,This is capable of sensing nearby things. ," Most of the images shown are animal fur ,closeups... I have marked ' NO ' taking in to account of   the image shown. only and not of the animal ..",9,BI2A00035,definitely no,-3,1105,india,drop202,sense,A11309DDKSLTVL,grad_some,NA,asian_southAsian,male,57,christianity_protestant,This is capable of sensing nearby things. ," Most of the images shown are animal fur ,closeups... I have marked ' NO ' taking in to account of   the image shown. only and not of the animal ..",10,BI2A00046,definitely no,-3,950,india,drop203,sense,A11309DDKSLTVL,grad_some,NA,asian_southAsian,male,57,christianity_protestant,This is capable of sensing nearby things. ," Most of the images shown are animal fur ,closeups... I have marked ' NO ' taking in to account of   the image shown. only and not of the animal ..",11,BI2A00001,probably no,-2,3849,india,drop204,sense,A11309DDKSLTVL,grad_some,NA,asian_southAsian,male,57,christianity_protestant,This is capable of sensing nearby things. ," Most of the images shown are animal fur ,closeups... I have marked ' NO ' taking in to account of   the image shown. only and not of the animal ..",12,BI2A00019,probably no,-2,2570,india,drop205,sense,A11309DDKSLTVL,grad_some,NA,asian_southAsian,male,57,christianity_protestant,This is capable of sensing nearby things. ," Most of the images shown are animal fur ,closeups... I have marked ' NO ' taking in to account of   the image shown. only and not of the animal ..",13,BI2A00025,definitely no,-3,2434,india,drop206,sense,A11309DDKSLTVL,grad_some,NA,asian_southAsian,male,57,christianity_protestant,This is capable of sensing nearby things. ," Most of the images shown are animal fur ,closeups... I have marked ' NO ' taking in to account of   the image shown. only and not of the animal ..",14,BI2A00002,probably no,-2,1814,india,drop207,sense,A11309DDKSLTVL,grad_some,NA,asian_southAsian,male,57,christianity_protestant,This is capable of sensing nearby things. ," Most of the images shown are animal fur ,closeups... I have marked ' NO ' taking in to account of   the image shown. only and not of the animal ..",15,BI2A00034,definitely no,-3,2714,india,drop208,sense,A11309DDKSLTVL,grad_some,NA,asian_southAsian,male,57,christianity_protestant,This is capable of sensing nearby things. ," Most of the images shown are animal fur ,closeups... I have marked ' NO ' taking in to account of   the image shown. only and not of the animal ..",16,BI2A00004,probably no,-2,1834,india,drop209,sense,A11309DDKSLTVL,grad_some,NA,asian_southAsian,male,57,christianity_protestant,This is capable of sensing nearby things. ," Most of the images shown are animal fur ,closeups... I have marked ' NO ' taking in to account of   the image shown. only and not of the animal ..",17,BI2A00032,definitely no,-3,5321,india,drop210,sense,A11309DDKSLTVL,grad_some,NA,asian_southAsian,male,57,christianity_protestant,This is capable of sensing nearby things. ," Most of the images shown are animal fur ,closeups... I have marked ' NO ' taking in to account of   the image shown. only and not of the animal ..",18,BI2A00017,definitely no,-3,1340,india,drop211,sense,A11309DDKSLTVL,grad_some,NA,asian_southAsian,male,57,christianity_protestant,This is capable of sensing nearby things. ," Most of the images shown are animal fur ,closeups... I have marked ' NO ' taking in to account of   the image shown. only and not of the animal ..",19,BI2A00008,probably no,-2,3084,india,drop212,sense,A11309DDKSLTVL,grad_some,NA,asian_southAsian,male,57,christianity_protestant,This is capable of sensing nearby things. ," Most of the images shown are animal fur ,closeups... I have marked ' NO ' taking in to account of   the image shown. only and not of the animal ..",20,BI2A00033,definitely no,-3,953,india,drop213,sense,A11309DDKSLTVL,grad_some,NA,asian_southAsian,male,57,christianity_protestant,This is capable of sensing nearby things. ," Most of the images shown are animal fur ,closeups... I have marked ' NO ' taking in to account of   the image shown. only and not of the animal ..",21,BI2A00010,definitely no,-3,3315,india,drop214,sense,A11309DDKSLTVL,grad_some,NA,asian_southAsian,male,57,christianity_protestant,This is capable of sensing nearby things. ," Most of the images shown are animal fur ,closeups... I have marked ' NO ' taking in to account of   the image shown. only and not of the animal ..",22,BI2A00044,definitely no,-3,947,india,drop215,sense,A11309DDKSLTVL,grad_some,NA,asian_southAsian,male,57,christianity_protestant,This is capable of sensing nearby things. ," Most of the images shown are animal fur ,closeups... I have marked ' NO ' taking in to account of   the image shown. only and not of the animal ..",23,BI2A00037,definitely no,-3,1250,india,drop216,sense,A11309DDKSLTVL,grad_some,NA,asian_southAsian,male,57,christianity_protestant,This is capable of sensing nearby things. ," Most of the images shown are animal fur ,closeups... I have marked ' NO ' taking in to account of   the image shown. only and not of the animal ..",24,BI2A00018,definitely no,-3,822,india,drop217,sense,A11309DDKSLTVL,grad_some,NA,asian_southAsian,male,57,christianity_protestant,This is capable of sensing nearby things. ," Most of the images shown are animal fur ,closeups... I have marked ' NO ' taking in to account of   the image shown. only and not of the animal ..",25,BI2A00006,probably no,-2,1512,india,drop218,sense,A11309DDKSLTVL,grad_some,NA,asian_southAsian,male,57,christianity_protestant,This is capable of sensing nearby things. ," Most of the images shown are animal fur ,closeups... I have marked ' NO ' taking in to account of   the image shown. only and not of the animal ..",26,BI2A00013,probably no,-2,1175,india,drop219,sense,A11309DDKSLTVL,grad_some,NA,asian_southAsian,male,57,christianity_protestant,This is capable of sensing nearby things. ," Most of the images shown are animal fur ,closeups... I have marked ' NO ' taking in to account of   the image shown. only and not of the animal ..",27,BI2A00039,definitely no,-3,1295,india,drop220,sense,A11309DDKSLTVL,grad_some,NA,asian_southAsian,male,57,christianity_protestant,This is capable of sensing nearby things. ," Most of the images shown are animal fur ,closeups... I have marked ' NO ' taking in to account of   the image shown. only and not of the animal ..",28,BI2A00016,definitely no,-3,2732,india,drop221,sense,A11309DDKSLTVL,grad_some,NA,asian_southAsian,male,57,christianity_protestant,This is capable of sensing nearby things. ," Most of the images shown are animal fur ,closeups... I have marked ' NO ' taking in to account of   the image shown. only and not of the animal ..",29,BI2A00045,definitely no,-3,1108,india,drop222,sense,A11309DDKSLTVL,grad_some,NA,asian_southAsian,male,57,christianity_protestant,This is capable of sensing nearby things. ," Most of the images shown are animal fur ,closeups... I have marked ' NO ' taking in to account of   the image shown. only and not of the animal ..",30,BI2A00023,definitely no,-3,2703,india,drop223,sense,A11309DDKSLTVL,grad_some,NA,asian_southAsian,male,57,christianity_protestant,This is capable of sensing nearby things. ," Most of the images shown are animal fur ,closeups... I have marked ' NO ' taking in to account of   the image shown. only and not of the animal ..",31,BI2A00027,definitely no,-3,1454,india,drop224,sense,A11309DDKSLTVL,grad_some,NA,asian_southAsian,male,57,christianity_protestant,This is capable of sensing nearby things. ," Most of the images shown are animal fur ,closeups... I have marked ' NO ' taking in to account of   the image shown. only and not of the animal ..",32,BI2A00011,probably no,-2,5683,india,drop225,sense,A11309DDKSLTVL,grad_some,NA,asian_southAsian,male,57,christianity_protestant,This is capable of sensing nearby things. ," Most of the images shown are animal fur ,closeups... I have marked ' NO ' taking in to account of   the image shown. only and not of the animal ..",33,BI2A00038,definitely no,-3,1328,india,drop226,sense,A11309DDKSLTVL,grad_some,NA,asian_southAsian,male,57,christianity_protestant,This is capable of sensing nearby things. ," Most of the images shown are animal fur ,closeups... I have marked ' NO ' taking in to account of   the image shown. only and not of the animal ..",34,BI2A00026,probably no,-2,1915,india,drop227,sense,A11309DDKSLTVL,grad_some,NA,asian_southAsian,male,57,christianity_protestant,This is capable of sensing nearby things. ," Most of the images shown are animal fur ,closeups... I have marked ' NO ' taking in to account of   the image shown. only and not of the animal ..",35,BI2A00009,probably no,-2,1411,india,drop228,sense,A11309DDKSLTVL,grad_some,NA,asian_southAsian,male,57,christianity_protestant,This is capable of sensing nearby things. ," Most of the images shown are animal fur ,closeups... I have marked ' NO ' taking in to account of   the image shown. only and not of the animal ..",36,BI2A00022,probably no,-2,1748,india,drop229,sense,A11309DDKSLTVL,grad_some,NA,asian_southAsian,male,57,christianity_protestant,This is capable of sensing nearby things. ," Most of the images shown are animal fur ,closeups... I have marked ' NO ' taking in to account of   the image shown. only and not of the animal ..",37,BI2A00028,definitely no,-3,1944,india,drop230,sense,A11309DDKSLTVL,grad_some,NA,asian_southAsian,male,57,christianity_protestant,This is capable of sensing nearby things. ," Most of the images shown are animal fur ,closeups... I have marked ' NO ' taking in to account of   the image shown. only and not of the animal ..",38,BI2A00014,definitely no,-3,829,india,drop231,sense,A11309DDKSLTVL,grad_some,NA,asian_southAsian,male,57,christianity_protestant,This is capable of sensing nearby things. ," Most of the images shown are animal fur ,closeups... I have marked ' NO ' taking in to account of   the image shown. only and not of the animal ..",39,BI2A00020,definitely no,-3,2005,india,drop232,sense,A11309DDKSLTVL,grad_some,NA,asian_southAsian,male,57,christianity_protestant,This is capable of sensing nearby things. ," Most of the images shown are animal fur ,closeups... I have marked ' NO ' taking in to account of   the image shown. only and not of the animal ..",40,BI2A00012,definitely no,-3,1268,india,drop233,sense,A11309DDKSLTVL,grad_some,NA,asian_southAsian,male,57,christianity_protestant,This is capable of sensing nearby things. ," Most of the images shown are animal fur ,closeups... I have marked ' NO ' taking in to account of   the image shown. only and not of the animal ..",41,BI2A00030,definitely no,-3,940,india,drop234,sense,A11309DDKSLTVL,grad_some,NA,asian_southAsian,male,57,christianity_protestant,This is capable of sensing nearby things. ," Most of the images shown are animal fur ,closeups... I have marked ' NO ' taking in to account of   the image shown. only and not of the animal ..",42,BI2A00036,definitely no,-3,1274,india,drop235,sense,A11309DDKSLTVL,grad_some,NA,asian_southAsian,male,57,christianity_protestant,This is capable of sensing nearby things. ," Most of the images shown are animal fur ,closeups... I have marked ' NO ' taking in to account of   the image shown. only and not of the animal ..",43,BI2A00042,definitely no,-3,1926,india,drop236,sense,A11309DDKSLTVL,grad_some,NA,asian_southAsian,male,57,christianity_protestant,This is capable of sensing nearby things. ," Most of the images shown are animal fur ,closeups... I have marked ' NO ' taking in to account of   the image shown. only and not of the animal ..",44,BI2A00043,definitely no,-3,1511,india,drop237,sense,A11309DDKSLTVL,grad_some,NA,asian_southAsian,male,57,christianity_protestant,This is capable of sensing nearby things. ," Most of the images shown are animal fur ,closeups... I have marked ' NO ' taking in to account of   the image shown. only and not of the animal ..",45,BI2A00040,definitely no,-3,760,india,drop238,sense,A11309DDKSLTVL,grad_some,NA,asian_southAsian,male,57,christianity_protestant,This is capable of sensing nearby things. ," Most of the images shown are animal fur ,closeups... I have marked ' NO ' taking in to account of   the image shown. only and not of the animal ..",46,BI2A00031,definitely no,-3,874,india,drop239,sense,A11309DDKSLTVL,grad_some,NA,asian_southAsian,male,57,christianity_protestant,This is capable of sensing nearby things. ," Most of the images shown are animal fur ,closeups... I have marked ' NO ' taking in to account of   the image shown. only and not of the animal ..",47,BI2A00015,definitely no,-3,1065,india,drop240,sense,A11309DDKSLTVL,grad_some,NA,asian_southAsian,male,57,christianity_protestant,This is capable of sensing nearby things. ," Most of the images shown are animal fur ,closeups... I have marked ' NO ' taking in to account of   the image shown. only and not of the animal ..",48,BI2A00021,definitely no,-3,1262,india,drop385,emotions,A11DVZZE26RU7O,grad_degree,NA,asian_southAsian,male,40,hinduism,this one does feel emotions,,1,BI2A00048,definitely no,-3,5531,india,keep386,emotions,A11DVZZE26RU7O,grad_degree,NA,asian_southAsian,male,40,hinduism,this one does feel emotions,,2,BI2A00023,definitely no,-3,4379,india,keep387,emotions,A11DVZZE26RU7O,grad_degree,NA,asian_southAsian,male,40,hinduism,this one does feel emotions,,3,BI2A00045,definitely no,-3,2192,india,keep388,emotions,A11DVZZE26RU7O,grad_degree,NA,asian_southAsian,male,40,hinduism,this one does feel emotions,,4,BI2A00029,definitely no,-3,2436,india,keep389,emotions,A11DVZZE26RU7O,grad_degree,NA,asian_southAsian,male,40,hinduism,this one does feel emotions,,5,BI2A00041,definitely no,-3,2386,india,keep390,emotions,A11DVZZE26RU7O,grad_degree,NA,asian_southAsian,male,40,hinduism,this one does feel emotions,,6,BI2A00037,definitely no,-3,2589,india,keep391,emotions,A11DVZZE26RU7O,grad_degree,NA,asian_southAsian,male,40,hinduism,this one does feel emotions,,7,BI2A00046,definitely no,-3,922,india,keep392,emotions,A11DVZZE26RU7O,grad_degree,NA,asian_southAsian,male,40,hinduism,this one does feel emotions,,8,BI2A00015,probably yes,2,3969,india,keep393,emotions,A11DVZZE26RU7O,grad_degree,NA,asian_southAsian,male,40,hinduism,this one does feel emotions,,9,BI2A00042,definitely no,-3,3375,india,keep394,emotions,A11DVZZE26RU7O,grad_degree,NA,asian_southAsian,male,40,hinduism,this one does feel emotions,,10,BI2A00020,probably yes,2,2658,india,keep395,emotions,A11DVZZE26RU7O,grad_degree,NA,asian_southAsian,male,40,hinduism,this one does feel emotions,,11,BI2A00026,probably yes,2,3672,india,keep396,emotions,A11DVZZE26RU7O,grad_degree,NA,asian_southAsian,male,40,hinduism,this one does feel emotions,,12,BI2A00006,definitely yes,3,4099,india,keep397,emotions,A11DVZZE26RU7O,grad_degree,NA,asian_southAsian,male,40,hinduism,this one does feel emotions,,13,BI2A00011,definitely yes,3,1506,india,keep398,emotions,A11DVZZE26RU7O,grad_degree,NA,asian_southAsian,male,40,hinduism,this one does feel emotions,,14,BI2A00004,definitely yes,3,1624,india,keep399,emotions,A11DVZZE26RU7O,grad_degree,NA,asian_southAsian,male,40,hinduism,this one does feel emotions,,15,BI2A00016,definitely yes,3,1781,india,keep400,emotions,A11DVZZE26RU7O,grad_degree,NA,asian_southAsian,male,40,hinduism,this one does feel emotions,,16,BI2A00017,definitely no,-3,2135,india,keep401,emotions,A11DVZZE26RU7O,grad_degree,NA,asian_southAsian,male,40,hinduism,this one does feel emotions,,17,BI2A00032,definitely no,-3,1008,india,keep402,emotions,A11DVZZE26RU7O,grad_degree,NA,asian_southAsian,male,40,hinduism,this one does feel emotions,,18,BI2A00038,definitely no,-3,1217,india,keep403,emotions,A11DVZZE26RU7O,grad_degree,NA,asian_southAsian,male,40,hinduism,this one does feel emotions,,19,BI2A00018,definitely no,-3,1376,india,keep404,emotions,A11DVZZE26RU7O,grad_degree,NA,asian_southAsian,male,40,hinduism,this one does feel emotions,,20,BI2A00001,definitely no,-3,1161,india,keep405,emotions,A11DVZZE26RU7O,grad_degree,NA,asian_southAsian,male,40,hinduism,this one does feel emotions,,21,BI2A00024,definitely yes,3,2127,india,keep406,emotions,A11DVZZE26RU7O,grad_degree,NA,asian_southAsian,male,40,hinduism,this one does feel emotions,,22,BI2A00005,definitely yes,3,1550,india,keep407,emotions,A11DVZZE26RU7O,grad_degree,NA,asian_southAsian,male,40,hinduism,this one does feel emotions,,23,BI2A00034,definitely no,-3,3482,india,keep408,emotions,A11DVZZE26RU7O,grad_degree,NA,asian_southAsian,male,40,hinduism,this one does feel emotions,,24,BI2A00027,definitely no,-3,1163,india,keep409,emotions,A11DVZZE26RU7O,grad_degree,NA,asian_southAsian,male,40,hinduism,this one does feel emotions,,25,BI2A00002,maybe yes,1,4088,india,keep410,emotions,A11DVZZE26RU7O,grad_degree,NA,asian_southAsian,male,40,hinduism,this one does feel emotions,,26,BI2A00007,probably yes,2,2600,india,keep411,emotions,A11DVZZE26RU7O,grad_degree,NA,asian_southAsian,male,40,hinduism,this one does feel emotions,,27,BI2A00039,definitely no,-3,3030,india,keep412,emotions,A11DVZZE26RU7O,grad_degree,NA,asian_southAsian,male,40,hinduism,this one does feel emotions,,28,BI2A00014,definitely no,-3,2170,india,keep413,emotions,A11DVZZE26RU7O,grad_degree,NA,asian_southAsian,male,40,hinduism,this one does feel emotions,,29,BI2A00009,probably yes,2,2052,india,keep414,emotions,A11DVZZE26RU7O,grad_degree,NA,asian_southAsian,male,40,hinduism,this one does feel emotions,,30,BI2A00043,definitely no,-3,2010,india,keep415,emotions,A11DVZZE26RU7O,grad_degree,NA,asian_southAsian,male,40,hinduism,this one does feel emotions,,31,BI2A00013,maybe yes,1,3767,india,keep416,emotions,A11DVZZE26RU7O,grad_degree,NA,asian_southAsian,male,40,hinduism,this one does feel emotions,,32,BI2A00040,definitely no,-3,2077,india,keep417,emotions,A11DVZZE26RU7O,grad_degree,NA,asian_southAsian,male,40,hinduism,this one does feel emotions,,33,BI2A00035,definitely no,-3,1032,india,keep418,emotions,A11DVZZE26RU7O,grad_degree,NA,asian_southAsian,male,40,hinduism,this one does feel emotions,,34,BI2A00030,definitely no,-3,1079,india,keep419,emotions,A11DVZZE26RU7O,grad_degree,NA,asian_southAsian,male,40,hinduism,this one does feel emotions,,35,BI2A00019,maybe yes,1,1947,india,keep420,emotions,A11DVZZE26RU7O,grad_degree,NA,asian_southAsian,male,40,hinduism,this one does feel emotions,,36,BI2A00028,definitely no,-3,1555,india,keep421,emotions,A11DVZZE26RU7O,grad_degree,NA,asian_southAsian,male,40,hinduism,this one does feel emotions,,37,BI2A00044,definitely no,-3,1222,india,keep422,emotions,A11DVZZE26RU7O,grad_degree,NA,asian_southAsian,male,40,hinduism,this one does feel emotions,,38,BI2A00047,definitely no,-3,1220,india,keep423,emotions,A11DVZZE26RU7O,grad_degree,NA,asian_southAsian,male,40,hinduism,this one does feel emotions,,39,BI2A00022,definitely no,-3,1283,india,keep424,emotions,A11DVZZE26RU7O,grad_degree,NA,asian_southAsian,male,40,hinduism,this one does feel emotions,,40,BI2A00003,maybe yes,1,2900,india,keep425,emotions,A11DVZZE26RU7O,grad_degree,NA,asian_southAsian,male,40,hinduism,this one does feel emotions,,41,BI2A00031,definitely no,-3,8015,india,keep426,emotions,A11DVZZE26RU7O,grad_degree,NA,asian_southAsian,male,40,hinduism,this one does feel emotions,,42,BI2A00025,definitely no,-3,2960,india,keep427,emotions,A11DVZZE26RU7O,grad_degree,NA,asian_southAsian,male,40,hinduism,this one does feel emotions,,43,BI2A00033,definitely no,-3,1078,india,keep428,emotions,A11DVZZE26RU7O,grad_degree,NA,asian_southAsian,male,40,hinduism,this one does feel emotions,,44,BI2A00008,maybe yes,1,2959,india,keep429,emotions,A11DVZZE26RU7O,grad_degree,NA,asian_southAsian,male,40,hinduism,this one does feel emotions,,45,BI2A00021,definitely no,-3,1710,india,keep430,emotions,A11DVZZE26RU7O,grad_degree,NA,asian_southAsian,male,40,hinduism,this one does feel emotions,,46,BI2A00012,definitely no,-3,1164,india,keep431,emotions,A11DVZZE26RU7O,grad_degree,NA,asian_southAsian,male,40,hinduism,this one does feel emotions,,47,BI2A00036,definitely no,-3,2874,india,keep432,emotions,A11DVZZE26RU7O,grad_degree,NA,asian_southAsian,male,40,hinduism,this one does feel emotions,,48,BI2A00010,maybe yes,1,2471,india,keep3937,emotions,A11UQWFUDNIHIL,hs_diploma,NA,white,female,39,none,I get the impression this one is capable of feeling emotions.,,1,BI2A00045,definitely no,-3,8115,us,keep3938,emotions,A11UQWFUDNIHIL,hs_diploma,NA,white,female,39,none,I get the impression this one is capable of feeling emotions.,,2,BI2A00006,probably yes,2,5378,us,keep3939,emotions,A11UQWFUDNIHIL,hs_diploma,NA,white,female,39,none,I get the impression this one is capable of feeling emotions.,,3,BI2A00023,probably no,-2,8363,us,keep3940,emotions,A11UQWFUDNIHIL,hs_diploma,NA,white,female,39,none,I get the impression this one is capable of feeling emotions.,,4,BI2A00019,probably yes,2,4060,us,keep3941,emotions,A11UQWFUDNIHIL,hs_diploma,NA,white,female,39,none,I get the impression this one is capable of feeling emotions.,,5,BI2A00043,equally yes/no,0,4145,us,keep3942,emotions,A11UQWFUDNIHIL,hs_diploma,NA,white,female,39,none,I get the impression this one is capable of feeling emotions.,,6,BI2A00038,definitely no,-3,1986,us,keep3943,emotions,A11UQWFUDNIHIL,hs_diploma,NA,white,female,39,none,I get the impression this one is capable of feeling emotions.,,7,BI2A00001,probably yes,2,2581,us,keep3944,emotions,A11UQWFUDNIHIL,hs_diploma,NA,white,female,39,none,I get the impression this one is capable of feeling emotions.,,8,BI2A00013,probably yes,2,3431,us,keep3945,emotions,A11UQWFUDNIHIL,hs_diploma,NA,white,female,39,none,I get the impression this one is capable of feeling emotions.,,9,BI2A00039,definitely no,-3,2090,us,keep3946,emotions,A11UQWFUDNIHIL,hs_diploma,NA,white,female,39,none,I get the impression this one is capable of feeling emotions.,,10,BI2A00047,definitely no,-3,4142,us,keep3947,emotions,A11UQWFUDNIHIL,hs_diploma,NA,white,female,39,none,I get the impression this one is capable of feeling emotions.,,11,BI2A00002,probably yes,2,1826,us,keep3948,emotions,A11UQWFUDNIHIL,hs_diploma,NA,white,female,39,none,I get the impression this one is capable of feeling emotions.,,12,BI2A00017,probably no,-2,4672,us,keep3949,emotions,A11UQWFUDNIHIL,hs_diploma,NA,white,female,39,none,I get the impression this one is capable of feeling emotions.,,13,BI2A00007,probably yes,2,2240,us,keep3950,emotions,A11UQWFUDNIHIL,hs_diploma,NA,white,female,39,none,I get the impression this one is capable of feeling emotions.,,14,BI2A00021,probably no,-2,4262,us,keep3951,emotions,A11UQWFUDNIHIL,hs_diploma,NA,white,female,39,none,I get the impression this one is capable of feeling emotions.,,15,BI2A00025,probably no,-2,2114,us,keep3952,emotions,A11UQWFUDNIHIL,hs_diploma,NA,white,female,39,none,I get the impression this one is capable of feeling emotions.,,16,BI2A00005,probably yes,2,1869,us,keep3953,emotions,A11UQWFUDNIHIL,hs_diploma,NA,white,female,39,none,I get the impression this one is capable of feeling emotions.,,17,BI2A00011,probably yes,2,1659,us,keep3954,emotions,A11UQWFUDNIHIL,hs_diploma,NA,white,female,39,none,I get the impression this one is capable of feeling emotions.,,18,BI2A00030,definitely no,-3,2157,us,keep3955,emotions,A11UQWFUDNIHIL,hs_diploma,NA,white,female,39,none,I get the impression this one is capable of feeling emotions.,,19,BI2A00004,probably yes,2,2029,us,keep3956,emotions,A11UQWFUDNIHIL,hs_diploma,NA,white,female,39,none,I get the impression this one is capable of feeling emotions.,,20,BI2A00034,definitely no,-3,2222,us,keep3957,emotions,A11UQWFUDNIHIL,hs_diploma,NA,white,female,39,none,I get the impression this one is capable of feeling emotions.,,21,BI2A00018,probably no,-2,2779,us,keep3958,emotions,A11UQWFUDNIHIL,hs_diploma,NA,white,female,39,none,I get the impression this one is capable of feeling emotions.,,22,BI2A00027,definitely no,-3,1838,us,keep3959,emotions,A11UQWFUDNIHIL,hs_diploma,NA,white,female,39,none,I get the impression this one is capable of feeling emotions.,,23,BI2A00042,definitely no,-3,1315,us,keep3960,emotions,A11UQWFUDNIHIL,hs_diploma,NA,white,female,39,none,I get the impression this one is capable of feeling emotions.,,24,BI2A00044,definitely no,-3,1469,us,keep3961,emotions,A11UQWFUDNIHIL,hs_diploma,NA,white,female,39,none,I get the impression this one is capable of feeling emotions.,,25,BI2A00015,maybe yes,1,3973,us,keep3962,emotions,A11UQWFUDNIHIL,hs_diploma,NA,white,female,39,none,I get the impression this one is capable of feeling emotions.,,26,BI2A00035,definitely no,-3,1811,us,keep3963,emotions,A11UQWFUDNIHIL,hs_diploma,NA,white,female,39,none,I get the impression this one is capable of feeling emotions.,,27,BI2A00041,definitely no,-3,1165,us,keep3964,emotions,A11UQWFUDNIHIL,hs_diploma,NA,white,female,39,none,I get the impression this one is capable of feeling emotions.,,28,BI2A00024,definitely yes,3,2637,us,keep3965,emotions,A11UQWFUDNIHIL,hs_diploma,NA,white,female,39,none,I get the impression this one is capable of feeling emotions.,,29,BI2A00029,definitely no,-3,1886,us,keep3966,emotions,A11UQWFUDNIHIL,hs_diploma,NA,white,female,39,none,I get the impression this one is capable of feeling emotions.,,30,BI2A00009,definitely yes,3,2022,us,keep3967,emotions,A11UQWFUDNIHIL,hs_diploma,NA,white,female,39,none,I get the impression this one is capable of feeling emotions.,,31,BI2A00036,definitely no,-3,1665,us,keep3968,emotions,A11UQWFUDNIHIL,hs_diploma,NA,white,female,39,none,I get the impression this one is capable of feeling emotions.,,32,BI2A00026,maybe no,-1,3862,us,keep3969,emotions,A11UQWFUDNIHIL,hs_diploma,NA,white,female,39,none,I get the impression this one is capable of feeling emotions.,,33,BI2A00016,equally yes/no,0,5659,us,keep3970,emotions,A11UQWFUDNIHIL,hs_diploma,NA,white,female,39,none,I get the impression this one is capable of feeling emotions.,,34,BI2A00032,probably no,-2,3418,us,keep3971,emotions,A11UQWFUDNIHIL,hs_diploma,NA,white,female,39,none,I get the impression this one is capable of feeling emotions.,,35,BI2A00033,definitely no,-3,1713,us,keep3972,emotions,A11UQWFUDNIHIL,hs_diploma,NA,white,female,39,none,I get the impression this one is capable of feeling emotions.,,36,BI2A00014,equally yes/no,0,2711,us,keep3973,emotions,A11UQWFUDNIHIL,hs_diploma,NA,white,female,39,none,I get the impression this one is capable of feeling emotions.,,37,BI2A00031,definitely no,-3,1884,us,keep3974,emotions,A11UQWFUDNIHIL,hs_diploma,NA,white,female,39,none,I get the impression this one is capable of feeling emotions.,,38,BI2A00040,definitely no,-3,1093,us,keep3975,emotions,A11UQWFUDNIHIL,hs_diploma,NA,white,female,39,none,I get the impression this one is capable of feeling emotions.,,39,BI2A00012,equally yes/no,0,2663,us,keep3976,emotions,A11UQWFUDNIHIL,hs_diploma,NA,white,female,39,none,I get the impression this one is capable of feeling emotions.,,40,BI2A00022,equally yes/no,0,2226,us,keep3977,emotions,A11UQWFUDNIHIL,hs_diploma,NA,white,female,39,none,I get the impression this one is capable of feeling emotions.,,41,BI2A00010,probably yes,2,2662,us,keep3978,emotions,A11UQWFUDNIHIL,hs_diploma,NA,white,female,39,none,I get the impression this one is capable of feeling emotions.,,42,BI2A00028,equally yes/no,0,3314,us,keep3979,emotions,A11UQWFUDNIHIL,hs_diploma,NA,white,female,39,none,I get the impression this one is capable of feeling emotions.,,43,BI2A00046,definitely no,-3,1645,us,keep3980,emotions,A11UQWFUDNIHIL,hs_diploma,NA,white,female,39,none,I get the impression this one is capable of feeling emotions.,,44,BI2A00037,definitely no,-3,2679,us,keep3981,emotions,A11UQWFUDNIHIL,hs_diploma,NA,white,female,39,none,I get the impression this one is capable of feeling emotions.,,45,BI2A00008,probably yes,2,2482,us,keep3982,emotions,A11UQWFUDNIHIL,hs_diploma,NA,white,female,39,none,I get the impression this one is capable of feeling emotions.,,46,BI2A00020,equally yes/no,0,3054,us,keep3983,emotions,A11UQWFUDNIHIL,hs_diploma,NA,white,female,39,none,I get the impression this one is capable of feeling emotions.,,47,BI2A00048,definitely no,-3,1403,us,keep3984,emotions,A11UQWFUDNIHIL,hs_diploma,NA,white,female,39,none,I get the impression this one is capable of feeling emotions.,,48,BI2A00003,probably yes,2,2796,us,keep4801,sense,A12COX2QIZTF6O,college_bachDegree,NA,white,female,24,prefNo,I believe that this thing can tell when something is close by,,1,BI2A00034,probably no,-2,4298,us,keep4802,sense,A12COX2QIZTF6O,college_bachDegree,NA,white,female,24,prefNo,I believe that this thing can tell when something is close by,,2,BI2A00045,probably no,-2,1063,us,keep4803,sense,A12COX2QIZTF6O,college_bachDegree,NA,white,female,24,prefNo,I believe that this thing can tell when something is close by,,3,BI2A00011,probably no,-2,1206,us,keep4804,sense,A12COX2QIZTF6O,college_bachDegree,NA,white,female,24,prefNo,I believe that this thing can tell when something is close by,,4,BI2A00016,probably yes,2,2261,us,keep4805,sense,A12COX2QIZTF6O,college_bachDegree,NA,white,female,24,prefNo,I believe that this thing can tell when something is close by,,5,BI2A00022,probably no,-2,4682,us,keep4806,sense,A12COX2QIZTF6O,college_bachDegree,NA,white,female,24,prefNo,I believe that this thing can tell when something is close by,,6,BI2A00031,probably no,-2,1451,us,keep4807,sense,A12COX2QIZTF6O,college_bachDegree,NA,white,female,24,prefNo,I believe that this thing can tell when something is close by,,7,BI2A00010,probably yes,2,2256,us,keep4808,sense,A12COX2QIZTF6O,college_bachDegree,NA,white,female,24,prefNo,I believe that this thing can tell when something is close by,,8,BI2A00048,probably no,-2,1612,us,keep4809,sense,A12COX2QIZTF6O,college_bachDegree,NA,white,female,24,prefNo,I believe that this thing can tell when something is close by,,9,BI2A00036,probably no,-2,1289,us,keep4810,sense,A12COX2QIZTF6O,college_bachDegree,NA,white,female,24,prefNo,I believe that this thing can tell when something is close by,,10,BI2A00026,probably no,-2,2035,us,keep4811,sense,A12COX2QIZTF6O,college_bachDegree,NA,white,female,24,prefNo,I believe that this thing can tell when something is close by,,11,BI2A00007,probably yes,2,1692,us,keep4812,sense,A12COX2QIZTF6O,college_bachDegree,NA,white,female,24,prefNo,I believe that this thing can tell when something is close by,,12,BI2A00002,probably yes,2,890,us,keep4813,sense,A12COX2QIZTF6O,college_bachDegree,NA,white,female,24,prefNo,I believe that this thing can tell when something is close by,,13,BI2A00001,probably yes,2,911,us,keep4814,sense,A12COX2QIZTF6O,college_bachDegree,NA,white,female,24,prefNo,I believe that this thing can tell when something is close by,,14,BI2A00033,probably no,-2,1640,us,keep4815,sense,A12COX2QIZTF6O,college_bachDegree,NA,white,female,24,prefNo,I believe that this thing can tell when something is close by,,15,BI2A00035,probably no,-2,904,us,keep4816,sense,A12COX2QIZTF6O,college_bachDegree,NA,white,female,24,prefNo,I believe that this thing can tell when something is close by,,16,BI2A00042,probably no,-2,1586,us,keep4817,sense,A12COX2QIZTF6O,college_bachDegree,NA,white,female,24,prefNo,I believe that this thing can tell when something is close by,,17,BI2A00028,probably yes,2,3318,us,keep4818,sense,A12COX2QIZTF6O,college_bachDegree,NA,white,female,24,prefNo,I believe that this thing can tell when something is close by,,18,BI2A00003,probably yes,2,894,us,keep4819,sense,A12COX2QIZTF6O,college_bachDegree,NA,white,female,24,prefNo,I believe that this thing can tell when something is close by,,19,BI2A00017,probably no,-2,1822,us,keep4820,sense,A12COX2QIZTF6O,college_bachDegree,NA,white,female,24,prefNo,I believe that this thing can tell when something is close by,,20,BI2A00038,probably no,-2,844,us,keep4821,sense,A12COX2QIZTF6O,college_bachDegree,NA,white,female,24,prefNo,I believe that this thing can tell when something is close by,,21,BI2A00005,probably yes,2,1344,us,keep4822,sense,A12COX2QIZTF6O,college_bachDegree,NA,white,female,24,prefNo,I believe that this thing can tell when something is close by,,22,BI2A00043,probably no,-2,2020,us,keep4823,sense,A12COX2QIZTF6O,college_bachDegree,NA,white,female,24,prefNo,I believe that this thing can tell when something is close by,,23,BI2A00009,probably yes,2,1535,us,keep4824,sense,A12COX2QIZTF6O,college_bachDegree,NA,white,female,24,prefNo,I believe that this thing can tell when something is close by,,24,BI2A00039,probably no,-2,1350,us,keep4825,sense,A12COX2QIZTF6O,college_bachDegree,NA,white,female,24,prefNo,I believe that this thing can tell when something is close by,,25,BI2A00018,probably no,-2,1378,us,keep4826,sense,A12COX2QIZTF6O,college_bachDegree,NA,white,female,24,prefNo,I believe that this thing can tell when something is close by,,26,BI2A00037,probably no,-2,1947,us,keep4827,sense,A12COX2QIZTF6O,college_bachDegree,NA,white,female,24,prefNo,I believe that this thing can tell when something is close by,,27,BI2A00014,probably yes,2,2415,us,keep4828,sense,A12COX2QIZTF6O,college_bachDegree,NA,white,female,24,prefNo,I believe that this thing can tell when something is close by,,28,BI2A00015,probably yes,2,776,us,keep4829,sense,A12COX2QIZTF6O,college_bachDegree,NA,white,female,24,prefNo,I believe that this thing can tell when something is close by,,29,BI2A00012,probably no,-2,1914,us,keep4830,sense,A12COX2QIZTF6O,college_bachDegree,NA,white,female,24,prefNo,I believe that this thing can tell when something is close by,,30,BI2A00020,probably no,-2,2194,us,keep4831,sense,A12COX2QIZTF6O,college_bachDegree,NA,white,female,24,prefNo,I believe that this thing can tell when something is close by,,31,BI2A00027,probably no,-2,1065,us,keep4832,sense,A12COX2QIZTF6O,college_bachDegree,NA,white,female,24,prefNo,I believe that this thing can tell when something is close by,,32,BI2A00021,probably no,-2,852,us,keep4833,sense,A12COX2QIZTF6O,college_bachDegree,NA,white,female,24,prefNo,I believe that this thing can tell when something is close by,,33,BI2A00044,probably no,-2,746,us,keep4834,sense,A12COX2QIZTF6O,college_bachDegree,NA,white,female,24,prefNo,I believe that this thing can tell when something is close by,,34,BI2A00032,probably no,-2,707,us,keep4835,sense,A12COX2QIZTF6O,college_bachDegree,NA,white,female,24,prefNo,I believe that this thing can tell when something is close by,,35,BI2A00046,probably no,-2,788,us,keep4836,sense,A12COX2QIZTF6O,college_bachDegree,NA,white,female,24,prefNo,I believe that this thing can tell when something is close by,,36,BI2A00013,probably yes,2,1680,us,keep4837,sense,A12COX2QIZTF6O,college_bachDegree,NA,white,female,24,prefNo,I believe that this thing can tell when something is close by,,37,BI2A00019,probably yes,2,883,us,keep4838,sense,A12COX2QIZTF6O,college_bachDegree,NA,white,female,24,prefNo,I believe that this thing can tell when something is close by,,38,BI2A00029,probably no,-2,1662,us,keep4839,sense,A12COX2QIZTF6O,college_bachDegree,NA,white,female,24,prefNo,I believe that this thing can tell when something is close by,,39,BI2A00006,probably no,-2,735,us,keep4840,sense,A12COX2QIZTF6O,college_bachDegree,NA,white,female,24,prefNo,I believe that this thing can tell when something is close by,,40,BI2A00030,probably no,-2,1484,us,keep4841,sense,A12COX2QIZTF6O,college_bachDegree,NA,white,female,24,prefNo,I believe that this thing can tell when something is close by,,41,BI2A00025,probably no,-2,1094,us,keep4842,sense,A12COX2QIZTF6O,college_bachDegree,NA,white,female,24,prefNo,I believe that this thing can tell when something is close by,,42,BI2A00004,probably yes,2,1547,us,keep4843,sense,A12COX2QIZTF6O,college_bachDegree,NA,white,female,24,prefNo,I believe that this thing can tell when something is close by,,43,BI2A00023,probably no,-2,2902,us,keep4844,sense,A12COX2QIZTF6O,college_bachDegree,NA,white,female,24,prefNo,I believe that this thing can tell when something is close by,,44,BI2A00024,probably yes,2,2083,us,keep4845,sense,A12COX2QIZTF6O,college_bachDegree,NA,white,female,24,prefNo,I believe that this thing can tell when something is close by,,45,BI2A00008,probably yes,2,1290,us,keep4846,sense,A12COX2QIZTF6O,college_bachDegree,NA,white,female,24,prefNo,I believe that this thing can tell when something is close by,,46,BI2A00047,probably no,-2,2019,us,keep4847,sense,A12COX2QIZTF6O,college_bachDegree,NA,white,female,24,prefNo,I believe that this thing can tell when something is close by,,47,BI2A00040,probably no,-2,736,us,keep4848,sense,A12COX2QIZTF6O,college_bachDegree,NA,white,female,24,prefNo,I believe that this thing can tell when something is close by,,48,BI2A00041,probably no,-2,1136,us,keep5137,emotions,A12GJUCS7AJ4K,hs_diploma,NA,asian_southAsian,male,20,none,I believe this one can feel emotions.,Thanks!,1,BI2A00026,probably yes,2,6991,us,keep5138,emotions,A12GJUCS7AJ4K,hs_diploma,NA,asian_southAsian,male,20,none,I believe this one can feel emotions.,Thanks!,2,BI2A00021,definitely no,-3,4244,us,keep5139,emotions,A12GJUCS7AJ4K,hs_diploma,NA,asian_southAsian,male,20,none,I believe this one can feel emotions.,Thanks!,3,BI2A00033,equally yes/no,0,3851,us,keep5140,emotions,A12GJUCS7AJ4K,hs_diploma,NA,asian_southAsian,male,20,none,I believe this one can feel emotions.,Thanks!,4,BI2A00004,definitely yes,3,3265,us,keep5141,emotions,A12GJUCS7AJ4K,hs_diploma,NA,asian_southAsian,male,20,none,I believe this one can feel emotions.,Thanks!,5,BI2A00011,definitely yes,3,1687,us,keep5142,emotions,A12GJUCS7AJ4K,hs_diploma,NA,asian_southAsian,male,20,none,I believe this one can feel emotions.,Thanks!,6,BI2A00007,definitely yes,3,1856,us,keep5143,emotions,A12GJUCS7AJ4K,hs_diploma,NA,asian_southAsian,male,20,none,I believe this one can feel emotions.,Thanks!,7,BI2A00024,definitely yes,3,2338,us,keep5144,emotions,A12GJUCS7AJ4K,hs_diploma,NA,asian_southAsian,male,20,none,I believe this one can feel emotions.,Thanks!,8,BI2A00047,probably no,-2,7278,us,keep5145,emotions,A12GJUCS7AJ4K,hs_diploma,NA,asian_southAsian,male,20,none,I believe this one can feel emotions.,Thanks!,9,BI2A00037,definitely no,-3,1764,us,keep5146,emotions,A12GJUCS7AJ4K,hs_diploma,NA,asian_southAsian,male,20,none,I believe this one can feel emotions.,Thanks!,10,BI2A00023,probably no,-2,3718,us,keep5147,emotions,A12GJUCS7AJ4K,hs_diploma,NA,asian_southAsian,male,20,none,I believe this one can feel emotions.,Thanks!,11,BI2A00045,definitely no,-3,1223,us,keep5148,emotions,A12GJUCS7AJ4K,hs_diploma,NA,asian_southAsian,male,20,none,I believe this one can feel emotions.,Thanks!,12,BI2A00029,definitely no,-3,2951,us,keep5149,emotions,A12GJUCS7AJ4K,hs_diploma,NA,asian_southAsian,male,20,none,I believe this one can feel emotions.,Thanks!,13,BI2A00015,maybe yes,1,2468,us,keep5150,emotions,A12GJUCS7AJ4K,hs_diploma,NA,asian_southAsian,male,20,none,I believe this one can feel emotions.,Thanks!,14,BI2A00017,definitely no,-3,4479,us,keep5151,emotions,A12GJUCS7AJ4K,hs_diploma,NA,asian_southAsian,male,20,none,I believe this one can feel emotions.,Thanks!,15,BI2A00009,probably yes,2,3784,us,keep5152,emotions,A12GJUCS7AJ4K,hs_diploma,NA,asian_southAsian,male,20,none,I believe this one can feel emotions.,Thanks!,16,BI2A00010,probably yes,2,3389,us,keep5153,emotions,A12GJUCS7AJ4K,hs_diploma,NA,asian_southAsian,male,20,none,I believe this one can feel emotions.,Thanks!,17,BI2A00003,definitely yes,3,1157,us,keep5154,emotions,A12GJUCS7AJ4K,hs_diploma,NA,asian_southAsian,male,20,none,I believe this one can feel emotions.,Thanks!,18,BI2A00035,definitely no,-3,1335,us,keep5155,emotions,A12GJUCS7AJ4K,hs_diploma,NA,asian_southAsian,male,20,none,I believe this one can feel emotions.,Thanks!,19,BI2A00039,definitely no,-3,2223,us,keep5156,emotions,A12GJUCS7AJ4K,hs_diploma,NA,asian_southAsian,male,20,none,I believe this one can feel emotions.,Thanks!,20,BI2A00034,maybe no,-1,2701,us,keep5157,emotions,A12GJUCS7AJ4K,hs_diploma,NA,asian_southAsian,male,20,none,I believe this one can feel emotions.,Thanks!,21,BI2A00013,maybe yes,1,1891,us,keep5158,emotions,A12GJUCS7AJ4K,hs_diploma,NA,asian_southAsian,male,20,none,I believe this one can feel emotions.,Thanks!,22,BI2A00036,probably no,-2,3308,us,keep5159,emotions,A12GJUCS7AJ4K,hs_diploma,NA,asian_southAsian,male,20,none,I believe this one can feel emotions.,Thanks!,23,BI2A00016,equally yes/no,0,4837,us,keep5160,emotions,A12GJUCS7AJ4K,hs_diploma,NA,asian_southAsian,male,20,none,I believe this one can feel emotions.,Thanks!,24,BI2A00019,maybe yes,1,1870,us,keep5161,emotions,A12GJUCS7AJ4K,hs_diploma,NA,asian_southAsian,male,20,none,I believe this one can feel emotions.,Thanks!,25,BI2A00046,definitely no,-3,1375,us,keep5162,emotions,A12GJUCS7AJ4K,hs_diploma,NA,asian_southAsian,male,20,none,I believe this one can feel emotions.,Thanks!,26,BI2A00002,maybe yes,1,4910,us,keep5163,emotions,A12GJUCS7AJ4K,hs_diploma,NA,asian_southAsian,male,20,none,I believe this one can feel emotions.,Thanks!,27,BI2A00030,probably no,-2,1826,us,keep5164,emotions,A12GJUCS7AJ4K,hs_diploma,NA,asian_southAsian,male,20,none,I believe this one can feel emotions.,Thanks!,28,BI2A00027,definitely no,-3,3277,us,keep5165,emotions,A12GJUCS7AJ4K,hs_diploma,NA,asian_southAsian,male,20,none,I believe this one can feel emotions.,Thanks!,29,BI2A00041,definitely no,-3,1331,us,keep5166,emotions,A12GJUCS7AJ4K,hs_diploma,NA,asian_southAsian,male,20,none,I believe this one can feel emotions.,Thanks!,30,BI2A00042,definitely no,-3,1102,us,keep5167,emotions,A12GJUCS7AJ4K,hs_diploma,NA,asian_southAsian,male,20,none,I believe this one can feel emotions.,Thanks!,31,BI2A00044,definitely no,-3,1364,us,keep5168,emotions,A12GJUCS7AJ4K,hs_diploma,NA,asian_southAsian,male,20,none,I believe this one can feel emotions.,Thanks!,32,BI2A00008,maybe yes,1,6418,us,keep5169,emotions,A12GJUCS7AJ4K,hs_diploma,NA,asian_southAsian,male,20,none,I believe this one can feel emotions.,Thanks!,33,BI2A00022,equally yes/no,0,1839,us,keep5170,emotions,A12GJUCS7AJ4K,hs_diploma,NA,asian_southAsian,male,20,none,I believe this one can feel emotions.,Thanks!,34,BI2A00038,definitely no,-3,1785,us,keep5171,emotions,A12GJUCS7AJ4K,hs_diploma,NA,asian_southAsian,male,20,none,I believe this one can feel emotions.,Thanks!,35,BI2A00048,definitely no,-3,949,us,keep5172,emotions,A12GJUCS7AJ4K,hs_diploma,NA,asian_southAsian,male,20,none,I believe this one can feel emotions.,Thanks!,36,BI2A00025,maybe no,-1,2487,us,keep5173,emotions,A12GJUCS7AJ4K,hs_diploma,NA,asian_southAsian,male,20,none,I believe this one can feel emotions.,Thanks!,37,BI2A00018,probably no,-2,3187,us,keep5174,emotions,A12GJUCS7AJ4K,hs_diploma,NA,asian_southAsian,male,20,none,I believe this one can feel emotions.,Thanks!,38,BI2A00032,definitely no,-3,2114,us,keep5175,emotions,A12GJUCS7AJ4K,hs_diploma,NA,asian_southAsian,male,20,none,I believe this one can feel emotions.,Thanks!,39,BI2A00020,equally yes/no,0,3307,us,keep5176,emotions,A12GJUCS7AJ4K,hs_diploma,NA,asian_southAsian,male,20,none,I believe this one can feel emotions.,Thanks!,40,BI2A00028,equally yes/no,0,1973,us,keep5177,emotions,A12GJUCS7AJ4K,hs_diploma,NA,asian_southAsian,male,20,none,I believe this one can feel emotions.,Thanks!,41,BI2A00012,maybe yes,1,3669,us,keep5178,emotions,A12GJUCS7AJ4K,hs_diploma,NA,asian_southAsian,male,20,none,I believe this one can feel emotions.,Thanks!,42,BI2A00031,definitely no,-3,3905,us,keep5179,emotions,A12GJUCS7AJ4K,hs_diploma,NA,asian_southAsian,male,20,none,I believe this one can feel emotions.,Thanks!,43,BI2A00005,definitely yes,3,3213,us,keep5180,emotions,A12GJUCS7AJ4K,hs_diploma,NA,asian_southAsian,male,20,none,I believe this one can feel emotions.,Thanks!,44,BI2A00043,definitely no,-3,2631,us,keep5181,emotions,A12GJUCS7AJ4K,hs_diploma,NA,asian_southAsian,male,20,none,I believe this one can feel emotions.,Thanks!,45,BI2A00001,probably yes,2,2333,us,keep5182,emotions,A12GJUCS7AJ4K,hs_diploma,NA,asian_southAsian,male,20,none,I believe this one can feel emotions.,Thanks!,46,BI2A00006,definitely yes,3,1555,us,keep5183,emotions,A12GJUCS7AJ4K,hs_diploma,NA,asian_southAsian,male,20,none,I believe this one can feel emotions.,Thanks!,47,BI2A00040,definitely no,-3,1784,us,keep5184,emotions,A12GJUCS7AJ4K,hs_diploma,NA,asian_southAsian,male,20,none,I believe this one can feel emotions.,Thanks!,48,BI2A00014,maybe no,-1,1898,us,keep145,emotions,A164EJTEKF1ECH,grad_degree,NA,asian_southAsian,female,34,islam,This one can feel emotions ,"The survey seems interesting, my best wishes for your research, thank you.",1,BI2A00012,probably yes,2,4084,india,keep146,emotions,A164EJTEKF1ECH,grad_degree,NA,asian_southAsian,female,34,islam,This one can feel emotions ,"The survey seems interesting, my best wishes for your research, thank you.",2,BI2A00010,probably no,-2,2057,india,keep147,emotions,A164EJTEKF1ECH,grad_degree,NA,asian_southAsian,female,34,islam,This one can feel emotions ,"The survey seems interesting, my best wishes for your research, thank you.",3,BI2A00045,maybe yes,1,2221,india,keep148,emotions,A164EJTEKF1ECH,grad_degree,NA,asian_southAsian,female,34,islam,This one can feel emotions ,"The survey seems interesting, my best wishes for your research, thank you.",4,BI2A00019,probably yes,2,1565,india,keep149,emotions,A164EJTEKF1ECH,grad_degree,NA,asian_southAsian,female,34,islam,This one can feel emotions ,"The survey seems interesting, my best wishes for your research, thank you.",5,BI2A00013,definitely yes,3,1272,india,keep150,emotions,A164EJTEKF1ECH,grad_degree,NA,asian_southAsian,female,34,islam,This one can feel emotions ,"The survey seems interesting, my best wishes for your research, thank you.",6,BI2A00037,definitely no,-3,2160,india,keep151,emotions,A164EJTEKF1ECH,grad_degree,NA,asian_southAsian,female,34,islam,This one can feel emotions ,"The survey seems interesting, my best wishes for your research, thank you.",7,BI2A00008,maybe yes,1,2452,india,keep152,emotions,A164EJTEKF1ECH,grad_degree,NA,asian_southAsian,female,34,islam,This one can feel emotions ,"The survey seems interesting, my best wishes for your research, thank you.",8,BI2A00043,definitely no,-3,1577,india,keep153,emotions,A164EJTEKF1ECH,grad_degree,NA,asian_southAsian,female,34,islam,This one can feel emotions ,"The survey seems interesting, my best wishes for your research, thank you.",9,BI2A00041,definitely no,-3,353,india,keep154,emotions,A164EJTEKF1ECH,grad_degree,NA,asian_southAsian,female,34,islam,This one can feel emotions ,"The survey seems interesting, my best wishes for your research, thank you.",10,BI2A00028,definitely no,-3,1361,india,keep155,emotions,A164EJTEKF1ECH,grad_degree,NA,asian_southAsian,female,34,islam,This one can feel emotions ,"The survey seems interesting, my best wishes for your research, thank you.",11,BI2A00044,definitely no,-3,1152,india,keep156,emotions,A164EJTEKF1ECH,grad_degree,NA,asian_southAsian,female,34,islam,This one can feel emotions ,"The survey seems interesting, my best wishes for your research, thank you.",12,BI2A00005,definitely yes,3,1761,india,keep157,emotions,A164EJTEKF1ECH,grad_degree,NA,asian_southAsian,female,34,islam,This one can feel emotions ,"The survey seems interesting, my best wishes for your research, thank you.",13,BI2A00042,definitely no,-3,1596,india,keep158,emotions,A164EJTEKF1ECH,grad_degree,NA,asian_southAsian,female,34,islam,This one can feel emotions ,"The survey seems interesting, my best wishes for your research, thank you.",14,BI2A00029,definitely no,-3,1425,india,keep159,emotions,A164EJTEKF1ECH,grad_degree,NA,asian_southAsian,female,34,islam,This one can feel emotions ,"The survey seems interesting, my best wishes for your research, thank you.",15,BI2A00024,definitely yes,3,1736,india,keep160,emotions,A164EJTEKF1ECH,grad_degree,NA,asian_southAsian,female,34,islam,This one can feel emotions ,"The survey seems interesting, my best wishes for your research, thank you.",16,BI2A00020,definitely yes,3,978,india,keep161,emotions,A164EJTEKF1ECH,grad_degree,NA,asian_southAsian,female,34,islam,This one can feel emotions ,"The survey seems interesting, my best wishes for your research, thank you.",17,BI2A00016,definitely yes,3,1020,india,keep162,emotions,A164EJTEKF1ECH,grad_degree,NA,asian_southAsian,female,34,islam,This one can feel emotions ,"The survey seems interesting, my best wishes for your research, thank you.",18,BI2A00003,definitely yes,3,978,india,keep163,emotions,A164EJTEKF1ECH,grad_degree,NA,asian_southAsian,female,34,islam,This one can feel emotions ,"The survey seems interesting, my best wishes for your research, thank you.",19,BI2A00011,probably yes,2,1340,india,keep164,emotions,A164EJTEKF1ECH,grad_degree,NA,asian_southAsian,female,34,islam,This one can feel emotions ,"The survey seems interesting, my best wishes for your research, thank you.",20,BI2A00036,definitely no,-3,2242,india,keep165,emotions,A164EJTEKF1ECH,grad_degree,NA,asian_southAsian,female,34,islam,This one can feel emotions ,"The survey seems interesting, my best wishes for your research, thank you.",21,BI2A00030,definitely no,-3,1007,india,keep166,emotions,A164EJTEKF1ECH,grad_degree,NA,asian_southAsian,female,34,islam,This one can feel emotions ,"The survey seems interesting, my best wishes for your research, thank you.",22,BI2A00034,definitely no,-3,1107,india,keep167,emotions,A164EJTEKF1ECH,grad_degree,NA,asian_southAsian,female,34,islam,This one can feel emotions ,"The survey seems interesting, my best wishes for your research, thank you.",23,BI2A00021,definitely no,-3,940,india,keep168,emotions,A164EJTEKF1ECH,grad_degree,NA,asian_southAsian,female,34,islam,This one can feel emotions ,"The survey seems interesting, my best wishes for your research, thank you.",24,BI2A00006,probably yes,2,1568,india,keep169,emotions,A164EJTEKF1ECH,grad_degree,NA,asian_southAsian,female,34,islam,This one can feel emotions ,"The survey seems interesting, my best wishes for your research, thank you.",25,BI2A00047,definitely no,-3,2469,india,keep170,emotions,A164EJTEKF1ECH,grad_degree,NA,asian_southAsian,female,34,islam,This one can feel emotions ,"The survey seems interesting, my best wishes for your research, thank you.",26,BI2A00025,probably yes,2,1999,india,keep171,emotions,A164EJTEKF1ECH,grad_degree,NA,asian_southAsian,female,34,islam,This one can feel emotions ,"The survey seems interesting, my best wishes for your research, thank you.",27,BI2A00027,definitely no,-3,1794,india,keep172,emotions,A164EJTEKF1ECH,grad_degree,NA,asian_southAsian,female,34,islam,This one can feel emotions ,"The survey seems interesting, my best wishes for your research, thank you.",28,BI2A00032,definitely no,-3,1076,india,keep173,emotions,A164EJTEKF1ECH,grad_degree,NA,asian_southAsian,female,34,islam,This one can feel emotions ,"The survey seems interesting, my best wishes for your research, thank you.",29,BI2A00018,definitely no,-3,983,india,keep174,emotions,A164EJTEKF1ECH,grad_degree,NA,asian_southAsian,female,34,islam,This one can feel emotions ,"The survey seems interesting, my best wishes for your research, thank you.",30,BI2A00046,definitely no,-3,1137,india,keep175,emotions,A164EJTEKF1ECH,grad_degree,NA,asian_southAsian,female,34,islam,This one can feel emotions ,"The survey seems interesting, my best wishes for your research, thank you.",31,BI2A00022,definitely no,-3,985,india,keep176,emotions,A164EJTEKF1ECH,grad_degree,NA,asian_southAsian,female,34,islam,This one can feel emotions ,"The survey seems interesting, my best wishes for your research, thank you.",32,BI2A00004,definitely yes,3,1734,india,keep177,emotions,A164EJTEKF1ECH,grad_degree,NA,asian_southAsian,female,34,islam,This one can feel emotions ,"The survey seems interesting, my best wishes for your research, thank you.",33,BI2A00033,definitely no,-3,1621,india,keep178,emotions,A164EJTEKF1ECH,grad_degree,NA,asian_southAsian,female,34,islam,This one can feel emotions ,"The survey seems interesting, my best wishes for your research, thank you.",34,BI2A00038,definitely no,-3,1007,india,keep179,emotions,A164EJTEKF1ECH,grad_degree,NA,asian_southAsian,female,34,islam,This one can feel emotions ,"The survey seems interesting, my best wishes for your research, thank you.",35,BI2A00048,definitely no,-3,992,india,keep180,emotions,A164EJTEKF1ECH,grad_degree,NA,asian_southAsian,female,34,islam,This one can feel emotions ,"The survey seems interesting, my best wishes for your research, thank you.",36,BI2A00040,definitely no,-3,1161,india,keep181,emotions,A164EJTEKF1ECH,grad_degree,NA,asian_southAsian,female,34,islam,This one can feel emotions ,"The survey seems interesting, my best wishes for your research, thank you.",37,BI2A00009,definitely yes,3,1982,india,keep182,emotions,A164EJTEKF1ECH,grad_degree,NA,asian_southAsian,female,34,islam,This one can feel emotions ,"The survey seems interesting, my best wishes for your research, thank you.",38,BI2A00001,definitely yes,3,1358,india,keep183,emotions,A164EJTEKF1ECH,grad_degree,NA,asian_southAsian,female,34,islam,This one can feel emotions ,"The survey seems interesting, my best wishes for your research, thank you.",39,BI2A00035,definitely no,-3,2664,india,keep184,emotions,A164EJTEKF1ECH,grad_degree,NA,asian_southAsian,female,34,islam,This one can feel emotions ,"The survey seems interesting, my best wishes for your research, thank you.",40,BI2A00017,definitely no,-3,1108,india,keep185,emotions,A164EJTEKF1ECH,grad_degree,NA,asian_southAsian,female,34,islam,This one can feel emotions ,"The survey seems interesting, my best wishes for your research, thank you.",41,BI2A00014,definitely no,-3,953,india,keep186,emotions,A164EJTEKF1ECH,grad_degree,NA,asian_southAsian,female,34,islam,This one can feel emotions ,"The survey seems interesting, my best wishes for your research, thank you.",42,BI2A00002,probably yes,2,1742,india,keep187,emotions,A164EJTEKF1ECH,grad_degree,NA,asian_southAsian,female,34,islam,This one can feel emotions ,"The survey seems interesting, my best wishes for your research, thank you.",43,BI2A00007,definitely yes,3,1174,india,keep188,emotions,A164EJTEKF1ECH,grad_degree,NA,asian_southAsian,female,34,islam,This one can feel emotions ,"The survey seems interesting, my best wishes for your research, thank you.",44,BI2A00026,definitely no,-3,1851,india,keep189,emotions,A164EJTEKF1ECH,grad_degree,NA,asian_southAsian,female,34,islam,This one can feel emotions ,"The survey seems interesting, my best wishes for your research, thank you.",45,BI2A00039,definitely no,-3,1157,india,keep190,emotions,A164EJTEKF1ECH,grad_degree,NA,asian_southAsian,female,34,islam,This one can feel emotions ,"The survey seems interesting, my best wishes for your research, thank you.",46,BI2A00023,definitely no,-3,1453,india,keep191,emotions,A164EJTEKF1ECH,grad_degree,NA,asian_southAsian,female,34,islam,This one can feel emotions ,"The survey seems interesting, my best wishes for your research, thank you.",47,BI2A00031,definitely no,-3,1015,india,keep192,emotions,A164EJTEKF1ECH,grad_degree,NA,asian_southAsian,female,34,islam,This one can feel emotions ,"The survey seems interesting, my best wishes for your research, thank you.",48,BI2A00015,maybe yes,1,1928,india,keep2065,sense,A16JJ7OG6F6J7A,college_bachDegree,NA,asian_southAsian,male,29,hinduism,I think that are close by this can one sense things that ,its nice,1,BI2A00009,maybe yes,1,21084,india,drop2066,sense,A16JJ7OG6F6J7A,college_bachDegree,NA,asian_southAsian,male,29,hinduism,I think that are close by this can one sense things that ,its nice,2,BI2A00035,probably yes,2,5146,india,drop2067,sense,A16JJ7OG6F6J7A,college_bachDegree,NA,asian_southAsian,male,29,hinduism,I think that are close by this can one sense things that ,its nice,3,BI2A00027,equally yes/no,0,9214,india,drop2068,sense,A16JJ7OG6F6J7A,college_bachDegree,NA,asian_southAsian,male,29,hinduism,I think that are close by this can one sense things that ,its nice,4,BI2A00003,maybe no,-1,4756,india,drop2069,sense,A16JJ7OG6F6J7A,college_bachDegree,NA,asian_southAsian,male,29,hinduism,I think that are close by this can one sense things that ,its nice,5,BI2A00031,equally yes/no,0,2217,india,drop2070,sense,A16JJ7OG6F6J7A,college_bachDegree,NA,asian_southAsian,male,29,hinduism,I think that are close by this can one sense things that ,its nice,6,BI2A00011,maybe yes,1,4782,india,drop2071,sense,A16JJ7OG6F6J7A,college_bachDegree,NA,asian_southAsian,male,29,hinduism,I think that are close by this can one sense things that ,its nice,7,BI2A00042,maybe yes,1,2044,india,drop2072,sense,A16JJ7OG6F6J7A,college_bachDegree,NA,asian_southAsian,male,29,hinduism,I think that are close by this can one sense things that ,its nice,8,BI2A00029,maybe yes,1,4675,india,drop2073,sense,A16JJ7OG6F6J7A,college_bachDegree,NA,asian_southAsian,male,29,hinduism,I think that are close by this can one sense things that ,its nice,9,BI2A00046,equally yes/no,0,3545,india,drop2074,sense,A16JJ7OG6F6J7A,college_bachDegree,NA,asian_southAsian,male,29,hinduism,I think that are close by this can one sense things that ,its nice,10,BI2A00010,maybe no,-1,3955,india,drop2075,sense,A16JJ7OG6F6J7A,college_bachDegree,NA,asian_southAsian,male,29,hinduism,I think that are close by this can one sense things that ,its nice,11,BI2A00036,maybe no,-1,2754,india,drop2076,sense,A16JJ7OG6F6J7A,college_bachDegree,NA,asian_southAsian,male,29,hinduism,I think that are close by this can one sense things that ,its nice,12,BI2A00021,probably yes,2,4061,india,drop2077,sense,A16JJ7OG6F6J7A,college_bachDegree,NA,asian_southAsian,male,29,hinduism,I think that are close by this can one sense things that ,its nice,13,BI2A00034,maybe yes,1,2579,india,drop2078,sense,A16JJ7OG6F6J7A,college_bachDegree,NA,asian_southAsian,male,29,hinduism,I think that are close by this can one sense things that ,its nice,14,BI2A00037,equally yes/no,0,3206,india,drop2079,sense,A16JJ7OG6F6J7A,college_bachDegree,NA,asian_southAsian,male,29,hinduism,I think that are close by this can one sense things that ,its nice,15,BI2A00045,maybe no,-1,2004,india,drop2080,sense,A16JJ7OG6F6J7A,college_bachDegree,NA,asian_southAsian,male,29,hinduism,I think that are close by this can one sense things that ,its nice,16,BI2A00018,probably yes,2,2539,india,drop2081,sense,A16JJ7OG6F6J7A,college_bachDegree,NA,asian_southAsian,male,29,hinduism,I think that are close by this can one sense things that ,its nice,17,BI2A00028,equally yes/no,0,3732,india,drop2082,sense,A16JJ7OG6F6J7A,college_bachDegree,NA,asian_southAsian,male,29,hinduism,I think that are close by this can one sense things that ,its nice,18,BI2A00026,maybe no,-1,1699,india,drop2083,sense,A16JJ7OG6F6J7A,college_bachDegree,NA,asian_southAsian,male,29,hinduism,I think that are close by this can one sense things that ,its nice,19,BI2A00013,probably yes,2,4071,india,drop2084,sense,A16JJ7OG6F6J7A,college_bachDegree,NA,asian_southAsian,male,29,hinduism,I think that are close by this can one sense things that ,its nice,20,BI2A00006,probably yes,2,1614,india,drop2085,sense,A16JJ7OG6F6J7A,college_bachDegree,NA,asian_southAsian,male,29,hinduism,I think that are close by this can one sense things that ,its nice,21,BI2A00022,probably yes,2,2118,india,drop2086,sense,A16JJ7OG6F6J7A,college_bachDegree,NA,asian_southAsian,male,29,hinduism,I think that are close by this can one sense things that ,its nice,22,BI2A00014,probably yes,2,1873,india,drop2087,sense,A16JJ7OG6F6J7A,college_bachDegree,NA,asian_southAsian,male,29,hinduism,I think that are close by this can one sense things that ,its nice,23,BI2A00041,probably yes,2,1791,india,drop2088,sense,A16JJ7OG6F6J7A,college_bachDegree,NA,asian_southAsian,male,29,hinduism,I think that are close by this can one sense things that ,its nice,24,BI2A00025,probably yes,2,1956,india,drop2089,sense,A16JJ7OG6F6J7A,college_bachDegree,NA,asian_southAsian,male,29,hinduism,I think that are close by this can one sense things that ,its nice,25,BI2A00012,maybe yes,1,1418,india,drop2090,sense,A16JJ7OG6F6J7A,college_bachDegree,NA,asian_southAsian,male,29,hinduism,I think that are close by this can one sense things that ,its nice,26,BI2A00047,maybe yes,1,2690,india,drop2091,sense,A16JJ7OG6F6J7A,college_bachDegree,NA,asian_southAsian,male,29,hinduism,I think that are close by this can one sense things that ,its nice,27,BI2A00043,equally yes/no,0,2179,india,drop2092,sense,A16JJ7OG6F6J7A,college_bachDegree,NA,asian_southAsian,male,29,hinduism,I think that are close by this can one sense things that ,its nice,28,BI2A00016,equally yes/no,0,1449,india,drop2093,sense,A16JJ7OG6F6J7A,college_bachDegree,NA,asian_southAsian,male,29,hinduism,I think that are close by this can one sense things that ,its nice,29,BI2A00040,maybe no,-1,1815,india,drop2094,sense,A16JJ7OG6F6J7A,college_bachDegree,NA,asian_southAsian,male,29,hinduism,I think that are close by this can one sense things that ,its nice,30,BI2A00023,maybe yes,1,1998,india,drop2095,sense,A16JJ7OG6F6J7A,college_bachDegree,NA,asian_southAsian,male,29,hinduism,I think that are close by this can one sense things that ,its nice,31,BI2A00033,probably no,-2,3118,india,drop2096,sense,A16JJ7OG6F6J7A,college_bachDegree,NA,asian_southAsian,male,29,hinduism,I think that are close by this can one sense things that ,its nice,32,BI2A00024,maybe no,-1,2107,india,drop2097,sense,A16JJ7OG6F6J7A,college_bachDegree,NA,asian_southAsian,male,29,hinduism,I think that are close by this can one sense things that ,its nice,33,BI2A00005,probably yes,2,3478,india,drop2098,sense,A16JJ7OG6F6J7A,college_bachDegree,NA,asian_southAsian,male,29,hinduism,I think that are close by this can one sense things that ,its nice,34,BI2A00044,maybe yes,1,1525,india,drop2099,sense,A16JJ7OG6F6J7A,college_bachDegree,NA,asian_southAsian,male,29,hinduism,I think that are close by this can one sense things that ,its nice,35,BI2A00039,equally yes/no,0,1526,india,drop2100,sense,A16JJ7OG6F6J7A,college_bachDegree,NA,asian_southAsian,male,29,hinduism,I think that are close by this can one sense things that ,its nice,36,BI2A00020,probably yes,2,1851,india,drop2101,sense,A16JJ7OG6F6J7A,college_bachDegree,NA,asian_southAsian,male,29,hinduism,I think that are close by this can one sense things that ,its nice,37,BI2A00002,maybe yes,1,1995,india,drop2102,sense,A16JJ7OG6F6J7A,college_bachDegree,NA,asian_southAsian,male,29,hinduism,I think that are close by this can one sense things that ,its nice,38,BI2A00048,equally yes/no,0,2518,india,drop2103,sense,A16JJ7OG6F6J7A,college_bachDegree,NA,asian_southAsian,male,29,hinduism,I think that are close by this can one sense things that ,its nice,39,BI2A00015,equally yes/no,0,1885,india,drop2104,sense,A16JJ7OG6F6J7A,college_bachDegree,NA,asian_southAsian,male,29,hinduism,I think that are close by this can one sense things that ,its nice,40,BI2A00019,equally yes/no,0,2025,india,drop2105,sense,A16JJ7OG6F6J7A,college_bachDegree,NA,asian_southAsian,male,29,hinduism,I think that are close by this can one sense things that ,its nice,41,BI2A00008,maybe yes,1,3101,india,drop2106,sense,A16JJ7OG6F6J7A,college_bachDegree,NA,asian_southAsian,male,29,hinduism,I think that are close by this can one sense things that ,its nice,42,BI2A00038,maybe yes,1,1694,india,drop2107,sense,A16JJ7OG6F6J7A,college_bachDegree,NA,asian_southAsian,male,29,hinduism,I think that are close by this can one sense things that ,its nice,43,BI2A00004,equally yes/no,0,2244,india,drop2108,sense,A16JJ7OG6F6J7A,college_bachDegree,NA,asian_southAsian,male,29,hinduism,I think that are close by this can one sense things that ,its nice,44,BI2A00030,equally yes/no,0,2340,india,drop2109,sense,A16JJ7OG6F6J7A,college_bachDegree,NA,asian_southAsian,male,29,hinduism,I think that are close by this can one sense things that ,its nice,45,BI2A00007,maybe yes,1,2229,india,drop2110,sense,A16JJ7OG6F6J7A,college_bachDegree,NA,asian_southAsian,male,29,hinduism,I think that are close by this can one sense things that ,its nice,46,BI2A00001,equally yes/no,0,1387,india,drop2111,sense,A16JJ7OG6F6J7A,college_bachDegree,NA,asian_southAsian,male,29,hinduism,I think that are close by this can one sense things that ,its nice,47,BI2A00032,maybe yes,1,1534,india,drop2112,sense,A16JJ7OG6F6J7A,college_bachDegree,NA,asian_southAsian,male,29,hinduism,I think that are close by this can one sense things that ,its nice,48,BI2A00017,maybe no,-1,1556,india,drop1585,hungry,A19ZOKX8M6VWOO,grad_some,NA,asian_southAsian,male,26,islam,i feel hungry by this ,thankyou for giving the task ,1,BI2A00016,probably no,-2,4798,india,drop1586,hungry,A19ZOKX8M6VWOO,grad_some,NA,asian_southAsian,male,26,islam,i feel hungry by this ,thankyou for giving the task ,2,BI2A00008,definitely no,-3,86345,india,drop1587,hungry,A19ZOKX8M6VWOO,grad_some,NA,asian_southAsian,male,26,islam,i feel hungry by this ,thankyou for giving the task ,3,BI2A00030,definitely no,-3,6216,india,drop1588,hungry,A19ZOKX8M6VWOO,grad_some,NA,asian_southAsian,male,26,islam,i feel hungry by this ,thankyou for giving the task ,4,BI2A00012,definitely no,-3,5062,india,drop1589,hungry,A19ZOKX8M6VWOO,grad_some,NA,asian_southAsian,male,26,islam,i feel hungry by this ,thankyou for giving the task ,5,BI2A00011,definitely no,-3,2701,india,drop1590,hungry,A19ZOKX8M6VWOO,grad_some,NA,asian_southAsian,male,26,islam,i feel hungry by this ,thankyou for giving the task ,6,BI2A00014,definitely no,-3,2220,india,drop1591,hungry,A19ZOKX8M6VWOO,grad_some,NA,asian_southAsian,male,26,islam,i feel hungry by this ,thankyou for giving the task ,7,BI2A00042,definitely no,-3,837,india,drop1592,hungry,A19ZOKX8M6VWOO,grad_some,NA,asian_southAsian,male,26,islam,i feel hungry by this ,thankyou for giving the task ,8,BI2A00020,definitely no,-3,8039,india,drop1593,hungry,A19ZOKX8M6VWOO,grad_some,NA,asian_southAsian,male,26,islam,i feel hungry by this ,thankyou for giving the task ,9,BI2A00007,probably no,-2,764,india,drop1594,hungry,A19ZOKX8M6VWOO,grad_some,NA,asian_southAsian,male,26,islam,i feel hungry by this ,thankyou for giving the task ,10,BI2A00044,definitely no,-3,694,india,drop1595,hungry,A19ZOKX8M6VWOO,grad_some,NA,asian_southAsian,male,26,islam,i feel hungry by this ,thankyou for giving the task ,11,BI2A00002,probably no,-2,823,india,drop1596,hungry,A19ZOKX8M6VWOO,grad_some,NA,asian_southAsian,male,26,islam,i feel hungry by this ,thankyou for giving the task ,12,BI2A00040,probably no,-2,918,india,drop1597,hungry,A19ZOKX8M6VWOO,grad_some,NA,asian_southAsian,male,26,islam,i feel hungry by this ,thankyou for giving the task ,13,BI2A00043,probably no,-2,701,india,drop1598,hungry,A19ZOKX8M6VWOO,grad_some,NA,asian_southAsian,male,26,islam,i feel hungry by this ,thankyou for giving the task ,14,BI2A00048,probably no,-2,550,india,drop1599,hungry,A19ZOKX8M6VWOO,grad_some,NA,asian_southAsian,male,26,islam,i feel hungry by this ,thankyou for giving the task ,15,BI2A00031,definitely no,-3,2046,india,drop1600,hungry,A19ZOKX8M6VWOO,grad_some,NA,asian_southAsian,male,26,islam,i feel hungry by this ,thankyou for giving the task ,16,BI2A00039,definitely no,-3,1365,india,drop1601,hungry,A19ZOKX8M6VWOO,grad_some,NA,asian_southAsian,male,26,islam,i feel hungry by this ,thankyou for giving the task ,17,BI2A00024,definitely no,-3,782,india,drop1602,hungry,A19ZOKX8M6VWOO,grad_some,NA,asian_southAsian,male,26,islam,i feel hungry by this ,thankyou for giving the task ,18,BI2A00034,probably no,-2,822,india,drop1603,hungry,A19ZOKX8M6VWOO,grad_some,NA,asian_southAsian,male,26,islam,i feel hungry by this ,thankyou for giving the task ,19,BI2A00032,probably no,-2,1236,india,drop1604,hungry,A19ZOKX8M6VWOO,grad_some,NA,asian_southAsian,male,26,islam,i feel hungry by this ,thankyou for giving the task ,20,BI2A00013,probably no,-2,1125,india,drop1605,hungry,A19ZOKX8M6VWOO,grad_some,NA,asian_southAsian,male,26,islam,i feel hungry by this ,thankyou for giving the task ,21,BI2A00004,definitely no,-3,635,india,drop1606,hungry,A19ZOKX8M6VWOO,grad_some,NA,asian_southAsian,male,26,islam,i feel hungry by this ,thankyou for giving the task ,22,BI2A00019,definitely no,-3,567,india,drop1607,hungry,A19ZOKX8M6VWOO,grad_some,NA,asian_southAsian,male,26,islam,i feel hungry by this ,thankyou for giving the task ,23,BI2A00010,definitely no,-3,879,india,drop1608,hungry,A19ZOKX8M6VWOO,grad_some,NA,asian_southAsian,male,26,islam,i feel hungry by this ,thankyou for giving the task ,24,BI2A00027,definitely no,-3,612,india,drop1609,hungry,A19ZOKX8M6VWOO,grad_some,NA,asian_southAsian,male,26,islam,i feel hungry by this ,thankyou for giving the task ,25,BI2A00017,definitely no,-3,1005,india,drop1610,hungry,A19ZOKX8M6VWOO,grad_some,NA,asian_southAsian,male,26,islam,i feel hungry by this ,thankyou for giving the task ,26,BI2A00001,definitely no,-3,1070,india,drop1611,hungry,A19ZOKX8M6VWOO,grad_some,NA,asian_southAsian,male,26,islam,i feel hungry by this ,thankyou for giving the task ,27,BI2A00021,definitely no,-3,518,india,drop1612,hungry,A19ZOKX8M6VWOO,grad_some,NA,asian_southAsian,male,26,islam,i feel hungry by this ,thankyou for giving the task ,28,BI2A00029,equally yes/no,0,4124,india,drop1613,hungry,A19ZOKX8M6VWOO,grad_some,NA,asian_southAsian,male,26,islam,i feel hungry by this ,thankyou for giving the task ,29,BI2A00038,maybe no,-1,1852,india,drop1614,hungry,A19ZOKX8M6VWOO,grad_some,NA,asian_southAsian,male,26,islam,i feel hungry by this ,thankyou for giving the task ,30,BI2A00045,maybe no,-1,3882,india,drop1615,hungry,A19ZOKX8M6VWOO,grad_some,NA,asian_southAsian,male,26,islam,i feel hungry by this ,thankyou for giving the task ,31,BI2A00018,maybe no,-1,837,india,drop1616,hungry,A19ZOKX8M6VWOO,grad_some,NA,asian_southAsian,male,26,islam,i feel hungry by this ,thankyou for giving the task ,32,BI2A00041,maybe no,-1,998,india,drop1617,hungry,A19ZOKX8M6VWOO,grad_some,NA,asian_southAsian,male,26,islam,i feel hungry by this ,thankyou for giving the task ,33,BI2A00005,maybe no,-1,918,india,drop1618,hungry,A19ZOKX8M6VWOO,grad_some,NA,asian_southAsian,male,26,islam,i feel hungry by this ,thankyou for giving the task ,34,BI2A00015,maybe no,-1,846,india,drop1619,hungry,A19ZOKX8M6VWOO,grad_some,NA,asian_southAsian,male,26,islam,i feel hungry by this ,thankyou for giving the task ,35,BI2A00006,maybe no,-1,1206,india,drop1620,hungry,A19ZOKX8M6VWOO,grad_some,NA,asian_southAsian,male,26,islam,i feel hungry by this ,thankyou for giving the task ,36,BI2A00025,maybe no,-1,855,india,drop1621,hungry,A19ZOKX8M6VWOO,grad_some,NA,asian_southAsian,male,26,islam,i feel hungry by this ,thankyou for giving the task ,37,BI2A00026,maybe no,-1,694,india,drop1622,hungry,A19ZOKX8M6VWOO,grad_some,NA,asian_southAsian,male,26,islam,i feel hungry by this ,thankyou for giving the task ,38,BI2A00037,probably no,-2,2507,india,drop1623,hungry,A19ZOKX8M6VWOO,grad_some,NA,asian_southAsian,male,26,islam,i feel hungry by this ,thankyou for giving the task ,39,BI2A00046,probably no,-2,1023,india,drop1624,hungry,A19ZOKX8M6VWOO,grad_some,NA,asian_southAsian,male,26,islam,i feel hungry by this ,thankyou for giving the task ,40,BI2A00009,probably no,-2,1070,india,drop1625,hungry,A19ZOKX8M6VWOO,grad_some,NA,asian_southAsian,male,26,islam,i feel hungry by this ,thankyou for giving the task ,41,BI2A00035,probably no,-2,1236,india,drop1626,hungry,A19ZOKX8M6VWOO,grad_some,NA,asian_southAsian,male,26,islam,i feel hungry by this ,thankyou for giving the task ,42,BI2A00036,maybe yes,1,2892,india,drop1627,hungry,A19ZOKX8M6VWOO,grad_some,NA,asian_southAsian,male,26,islam,i feel hungry by this ,thankyou for giving the task ,43,BI2A00023,maybe yes,1,902,india,drop1628,hungry,A19ZOKX8M6VWOO,grad_some,NA,asian_southAsian,male,26,islam,i feel hungry by this ,thankyou for giving the task ,44,BI2A00047,maybe yes,1,623,india,drop1629,hungry,A19ZOKX8M6VWOO,grad_some,NA,asian_southAsian,male,26,islam,i feel hungry by this ,thankyou for giving the task ,45,BI2A00003,maybe yes,1,951,india,drop1630,hungry,A19ZOKX8M6VWOO,grad_some,NA,asian_southAsian,male,26,islam,i feel hungry by this ,thankyou for giving the task ,46,BI2A00022,maybe yes,1,622,india,drop1631,hungry,A19ZOKX8M6VWOO,grad_some,NA,asian_southAsian,male,26,islam,i feel hungry by this ,thankyou for giving the task ,47,BI2A00033,maybe yes,1,943,india,drop1632,hungry,A19ZOKX8M6VWOO,grad_some,NA,asian_southAsian,male,26,islam,i feel hungry by this ,thankyou for giving the task ,48,BI2A00028,maybe yes,1,1934,india,drop3361,think,A1A66HBZG9JC9Y,grad_degree,NA,asian_southAsian,male,29,hinduism,for me this one can think,,1,BI2A00011,maybe yes,1,5905,india,keep3362,think,A1A66HBZG9JC9Y,grad_degree,NA,asian_southAsian,male,29,hinduism,for me this one can think,,2,BI2A00022,maybe yes,1,3635,india,keep3363,think,A1A66HBZG9JC9Y,grad_degree,NA,asian_southAsian,male,29,hinduism,for me this one can think,,3,BI2A00042,probably yes,2,4878,india,keep3364,think,A1A66HBZG9JC9Y,grad_degree,NA,asian_southAsian,male,29,hinduism,for me this one can think,,4,BI2A00004,equally yes/no,0,5140,india,keep3365,think,A1A66HBZG9JC9Y,grad_degree,NA,asian_southAsian,male,29,hinduism,for me this one can think,,5,BI2A00031,probably yes,2,2729,india,keep3366,think,A1A66HBZG9JC9Y,grad_degree,NA,asian_southAsian,male,29,hinduism,for me this one can think,,6,BI2A00036,maybe no,-1,3393,india,keep3367,think,A1A66HBZG9JC9Y,grad_degree,NA,asian_southAsian,male,29,hinduism,for me this one can think,,7,BI2A00038,maybe yes,1,2371,india,keep3368,think,A1A66HBZG9JC9Y,grad_degree,NA,asian_southAsian,male,29,hinduism,for me this one can think,,8,BI2A00035,maybe no,-1,1910,india,keep3369,think,A1A66HBZG9JC9Y,grad_degree,NA,asian_southAsian,male,29,hinduism,for me this one can think,,9,BI2A00013,maybe no,-1,2695,india,keep3370,think,A1A66HBZG9JC9Y,grad_degree,NA,asian_southAsian,male,29,hinduism,for me this one can think,,10,BI2A00008,equally yes/no,0,3883,india,keep3371,think,A1A66HBZG9JC9Y,grad_degree,NA,asian_southAsian,male,29,hinduism,for me this one can think,,11,BI2A00007,maybe no,-1,4514,india,keep3372,think,A1A66HBZG9JC9Y,grad_degree,NA,asian_southAsian,male,29,hinduism,for me this one can think,,12,BI2A00032,maybe yes,1,2143,india,keep3373,think,A1A66HBZG9JC9Y,grad_degree,NA,asian_southAsian,male,29,hinduism,for me this one can think,,13,BI2A00005,equally yes/no,0,1042,india,keep3374,think,A1A66HBZG9JC9Y,grad_degree,NA,asian_southAsian,male,29,hinduism,for me this one can think,,14,BI2A00037,maybe no,-1,968,india,keep3375,think,A1A66HBZG9JC9Y,grad_degree,NA,asian_southAsian,male,29,hinduism,for me this one can think,,15,BI2A00006,probably yes,2,1305,india,keep3376,think,A1A66HBZG9JC9Y,grad_degree,NA,asian_southAsian,male,29,hinduism,for me this one can think,,16,BI2A00009,maybe yes,1,1543,india,keep3377,think,A1A66HBZG9JC9Y,grad_degree,NA,asian_southAsian,male,29,hinduism,for me this one can think,,17,BI2A00002,probably no,-2,1365,india,keep3378,think,A1A66HBZG9JC9Y,grad_degree,NA,asian_southAsian,male,29,hinduism,for me this one can think,,18,BI2A00016,definitely yes,3,1671,india,keep3379,think,A1A66HBZG9JC9Y,grad_degree,NA,asian_southAsian,male,29,hinduism,for me this one can think,,19,BI2A00026,maybe yes,1,2217,india,keep3380,think,A1A66HBZG9JC9Y,grad_degree,NA,asian_southAsian,male,29,hinduism,for me this one can think,,20,BI2A00039,maybe no,-1,1796,india,keep3381,think,A1A66HBZG9JC9Y,grad_degree,NA,asian_southAsian,male,29,hinduism,for me this one can think,,21,BI2A00019,equally yes/no,0,1123,india,keep3382,think,A1A66HBZG9JC9Y,grad_degree,NA,asian_southAsian,male,29,hinduism,for me this one can think,,22,BI2A00046,maybe yes,1,2409,india,keep3383,think,A1A66HBZG9JC9Y,grad_degree,NA,asian_southAsian,male,29,hinduism,for me this one can think,,23,BI2A00029,equally yes/no,0,2148,india,keep3384,think,A1A66HBZG9JC9Y,grad_degree,NA,asian_southAsian,male,29,hinduism,for me this one can think,,24,BI2A00033,definitely yes,3,1825,india,keep3385,think,A1A66HBZG9JC9Y,grad_degree,NA,asian_southAsian,male,29,hinduism,for me this one can think,,25,BI2A00048,maybe yes,1,2333,india,keep3386,think,A1A66HBZG9JC9Y,grad_degree,NA,asian_southAsian,male,29,hinduism,for me this one can think,,26,BI2A00034,maybe no,-1,1920,india,keep3387,think,A1A66HBZG9JC9Y,grad_degree,NA,asian_southAsian,male,29,hinduism,for me this one can think,,27,BI2A00014,maybe no,-1,1337,india,keep3388,think,A1A66HBZG9JC9Y,grad_degree,NA,asian_southAsian,male,29,hinduism,for me this one can think,,28,BI2A00028,maybe yes,1,1571,india,keep3389,think,A1A66HBZG9JC9Y,grad_degree,NA,asian_southAsian,male,29,hinduism,for me this one can think,,29,BI2A00001,definitely no,-3,1362,india,keep3390,think,A1A66HBZG9JC9Y,grad_degree,NA,asian_southAsian,male,29,hinduism,for me this one can think,,30,BI2A00047,probably yes,2,4104,india,keep3391,think,A1A66HBZG9JC9Y,grad_degree,NA,asian_southAsian,male,29,hinduism,for me this one can think,,31,BI2A00024,definitely yes,3,4733,india,keep3392,think,A1A66HBZG9JC9Y,grad_degree,NA,asian_southAsian,male,29,hinduism,for me this one can think,,32,BI2A00044,equally yes/no,0,1856,india,keep3393,think,A1A66HBZG9JC9Y,grad_degree,NA,asian_southAsian,male,29,hinduism,for me this one can think,,33,BI2A00015,probably yes,2,1495,india,keep3394,think,A1A66HBZG9JC9Y,grad_degree,NA,asian_southAsian,male,29,hinduism,for me this one can think,,34,BI2A00041,maybe no,-1,3789,india,keep3395,think,A1A66HBZG9JC9Y,grad_degree,NA,asian_southAsian,male,29,hinduism,for me this one can think,,35,BI2A00010,equally yes/no,0,1656,india,keep3396,think,A1A66HBZG9JC9Y,grad_degree,NA,asian_southAsian,male,29,hinduism,for me this one can think,,36,BI2A00021,maybe yes,1,669,india,keep3397,think,A1A66HBZG9JC9Y,grad_degree,NA,asian_southAsian,male,29,hinduism,for me this one can think,,37,BI2A00025,maybe no,-1,1435,india,keep3398,think,A1A66HBZG9JC9Y,grad_degree,NA,asian_southAsian,male,29,hinduism,for me this one can think,,38,BI2A00017,probably yes,2,2551,india,keep3399,think,A1A66HBZG9JC9Y,grad_degree,NA,asian_southAsian,male,29,hinduism,for me this one can think,,39,BI2A00030,equally yes/no,0,1701,india,keep3400,think,A1A66HBZG9JC9Y,grad_degree,NA,asian_southAsian,male,29,hinduism,for me this one can think,,40,BI2A00003,probably yes,2,1624,india,keep3401,think,A1A66HBZG9JC9Y,grad_degree,NA,asian_southAsian,male,29,hinduism,for me this one can think,,41,BI2A00045,maybe no,-1,1474,india,keep3402,think,A1A66HBZG9JC9Y,grad_degree,NA,asian_southAsian,male,29,hinduism,for me this one can think,,42,BI2A00040,equally yes/no,0,1980,india,keep3403,think,A1A66HBZG9JC9Y,grad_degree,NA,asian_southAsian,male,29,hinduism,for me this one can think,,43,BI2A00023,maybe yes,1,2753,india,keep3404,think,A1A66HBZG9JC9Y,grad_degree,NA,asian_southAsian,male,29,hinduism,for me this one can think,,44,BI2A00043,maybe no,-1,2676,india,keep3405,think,A1A66HBZG9JC9Y,grad_degree,NA,asian_southAsian,male,29,hinduism,for me this one can think,,45,BI2A00018,maybe yes,1,2477,india,keep3406,think,A1A66HBZG9JC9Y,grad_degree,NA,asian_southAsian,male,29,hinduism,for me this one can think,,46,BI2A00020,maybe yes,1,1060,india,keep3407,think,A1A66HBZG9JC9Y,grad_degree,NA,asian_southAsian,male,29,hinduism,for me this one can think,,47,BI2A00027,probably yes,2,2928,india,keep3408,think,A1A66HBZG9JC9Y,grad_degree,NA,asian_southAsian,male,29,hinduism,for me this one can think,,48,BI2A00012,maybe yes,1,2103,india,keep3985,emotions,A1A7U8TF7JAMGN,college_bachDegree,NA,white,male,39,none,I think that this is an image of something that can feel emotions,,1,BI2A00032,probably no,-2,10796,us,keep3986,emotions,A1A7U8TF7JAMGN,college_bachDegree,NA,white,male,39,none,I think that this is an image of something that can feel emotions,,2,BI2A00002,maybe yes,1,6084,us,keep3987,emotions,A1A7U8TF7JAMGN,college_bachDegree,NA,white,male,39,none,I think that this is an image of something that can feel emotions,,3,BI2A00036,definitely no,-3,1798,us,keep3988,emotions,A1A7U8TF7JAMGN,college_bachDegree,NA,white,male,39,none,I think that this is an image of something that can feel emotions,,4,BI2A00012,maybe yes,1,5182,us,keep3989,emotions,A1A7U8TF7JAMGN,college_bachDegree,NA,white,male,39,none,I think that this is an image of something that can feel emotions,,5,BI2A00045,definitely no,-3,1399,us,keep3990,emotions,A1A7U8TF7JAMGN,college_bachDegree,NA,white,male,39,none,I think that this is an image of something that can feel emotions,,6,BI2A00021,definitely no,-3,1286,us,keep3991,emotions,A1A7U8TF7JAMGN,college_bachDegree,NA,white,male,39,none,I think that this is an image of something that can feel emotions,,7,BI2A00034,definitely no,-3,1926,us,keep3992,emotions,A1A7U8TF7JAMGN,college_bachDegree,NA,white,male,39,none,I think that this is an image of something that can feel emotions,,8,BI2A00017,definitely no,-3,2135,us,keep3993,emotions,A1A7U8TF7JAMGN,college_bachDegree,NA,white,male,39,none,I think that this is an image of something that can feel emotions,,9,BI2A00040,definitely no,-3,855,us,keep3994,emotions,A1A7U8TF7JAMGN,college_bachDegree,NA,white,male,39,none,I think that this is an image of something that can feel emotions,,10,BI2A00008,maybe yes,1,2471,us,keep3995,emotions,A1A7U8TF7JAMGN,college_bachDegree,NA,white,male,39,none,I think that this is an image of something that can feel emotions,,11,BI2A00004,maybe yes,1,2326,us,keep3996,emotions,A1A7U8TF7JAMGN,college_bachDegree,NA,white,male,39,none,I think that this is an image of something that can feel emotions,,12,BI2A00006,definitely yes,3,9558,us,keep3997,emotions,A1A7U8TF7JAMGN,college_bachDegree,NA,white,male,39,none,I think that this is an image of something that can feel emotions,,13,BI2A00043,definitely no,-3,2030,us,keep3998,emotions,A1A7U8TF7JAMGN,college_bachDegree,NA,white,male,39,none,I think that this is an image of something that can feel emotions,,14,BI2A00024,maybe yes,1,5262,us,keep3999,emotions,A1A7U8TF7JAMGN,college_bachDegree,NA,white,male,39,none,I think that this is an image of something that can feel emotions,,15,BI2A00003,probably yes,2,4413,us,keep4000,emotions,A1A7U8TF7JAMGN,college_bachDegree,NA,white,male,39,none,I think that this is an image of something that can feel emotions,,16,BI2A00041,definitely no,-3,2766,us,keep4001,emotions,A1A7U8TF7JAMGN,college_bachDegree,NA,white,male,39,none,I think that this is an image of something that can feel emotions,,17,BI2A00014,maybe no,-1,8375,us,keep4002,emotions,A1A7U8TF7JAMGN,college_bachDegree,NA,white,male,39,none,I think that this is an image of something that can feel emotions,,18,BI2A00013,definitely yes,3,2126,us,keep4003,emotions,A1A7U8TF7JAMGN,college_bachDegree,NA,white,male,39,none,I think that this is an image of something that can feel emotions,,19,BI2A00016,maybe yes,1,2631,us,keep4004,emotions,A1A7U8TF7JAMGN,college_bachDegree,NA,white,male,39,none,I think that this is an image of something that can feel emotions,,20,BI2A00030,definitely no,-3,3127,us,keep4005,emotions,A1A7U8TF7JAMGN,college_bachDegree,NA,white,male,39,none,I think that this is an image of something that can feel emotions,,21,BI2A00015,maybe yes,1,5989,us,keep4006,emotions,A1A7U8TF7JAMGN,college_bachDegree,NA,white,male,39,none,I think that this is an image of something that can feel emotions,,22,BI2A00038,definitely no,-3,1822,us,keep4007,emotions,A1A7U8TF7JAMGN,college_bachDegree,NA,white,male,39,none,I think that this is an image of something that can feel emotions,,23,BI2A00037,definitely no,-3,1007,us,keep4008,emotions,A1A7U8TF7JAMGN,college_bachDegree,NA,white,male,39,none,I think that this is an image of something that can feel emotions,,24,BI2A00005,definitely yes,3,1863,us,keep4009,emotions,A1A7U8TF7JAMGN,college_bachDegree,NA,white,male,39,none,I think that this is an image of something that can feel emotions,,25,BI2A00022,definitely no,-3,2495,us,keep4010,emotions,A1A7U8TF7JAMGN,college_bachDegree,NA,white,male,39,none,I think that this is an image of something that can feel emotions,,26,BI2A00047,definitely no,-3,830,us,keep4011,emotions,A1A7U8TF7JAMGN,college_bachDegree,NA,white,male,39,none,I think that this is an image of something that can feel emotions,,27,BI2A00033,definitely no,-3,759,us,keep4012,emotions,A1A7U8TF7JAMGN,college_bachDegree,NA,white,male,39,none,I think that this is an image of something that can feel emotions,,28,BI2A00031,definitely no,-3,735,us,keep4013,emotions,A1A7U8TF7JAMGN,college_bachDegree,NA,white,male,39,none,I think that this is an image of something that can feel emotions,,29,BI2A00020,maybe yes,1,2957,us,keep4014,emotions,A1A7U8TF7JAMGN,college_bachDegree,NA,white,male,39,none,I think that this is an image of something that can feel emotions,,30,BI2A00026,maybe no,-1,3553,us,keep4015,emotions,A1A7U8TF7JAMGN,college_bachDegree,NA,white,male,39,none,I think that this is an image of something that can feel emotions,,31,BI2A00035,definitely no,-3,1843,us,keep4016,emotions,A1A7U8TF7JAMGN,college_bachDegree,NA,white,male,39,none,I think that this is an image of something that can feel emotions,,32,BI2A00025,definitely no,-3,1238,us,keep4017,emotions,A1A7U8TF7JAMGN,college_bachDegree,NA,white,male,39,none,I think that this is an image of something that can feel emotions,,33,BI2A00011,definitely yes,3,1998,us,keep4018,emotions,A1A7U8TF7JAMGN,college_bachDegree,NA,white,male,39,none,I think that this is an image of something that can feel emotions,,34,BI2A00042,definitely no,-3,2510,us,keep4019,emotions,A1A7U8TF7JAMGN,college_bachDegree,NA,white,male,39,none,I think that this is an image of something that can feel emotions,,35,BI2A00007,maybe yes,1,2117,us,keep4020,emotions,A1A7U8TF7JAMGN,college_bachDegree,NA,white,male,39,none,I think that this is an image of something that can feel emotions,,36,BI2A00018,probably no,-2,5374,us,keep4021,emotions,A1A7U8TF7JAMGN,college_bachDegree,NA,white,male,39,none,I think that this is an image of something that can feel emotions,,37,BI2A00028,definitely no,-3,1356,us,keep4022,emotions,A1A7U8TF7JAMGN,college_bachDegree,NA,white,male,39,none,I think that this is an image of something that can feel emotions,,38,BI2A00039,definitely no,-3,1056,us,keep4023,emotions,A1A7U8TF7JAMGN,college_bachDegree,NA,white,male,39,none,I think that this is an image of something that can feel emotions,,39,BI2A00046,definitely no,-3,805,us,keep4024,emotions,A1A7U8TF7JAMGN,college_bachDegree,NA,white,male,39,none,I think that this is an image of something that can feel emotions,,40,BI2A00010,probably yes,2,2639,us,keep4025,emotions,A1A7U8TF7JAMGN,college_bachDegree,NA,white,male,39,none,I think that this is an image of something that can feel emotions,,41,BI2A00009,probably yes,2,2254,us,keep4026,emotions,A1A7U8TF7JAMGN,college_bachDegree,NA,white,male,39,none,I think that this is an image of something that can feel emotions,,42,BI2A00029,definitely no,-3,1270,us,keep4027,emotions,A1A7U8TF7JAMGN,college_bachDegree,NA,white,male,39,none,I think that this is an image of something that can feel emotions,,43,BI2A00019,maybe yes,1,2189,us,keep4028,emotions,A1A7U8TF7JAMGN,college_bachDegree,NA,white,male,39,none,I think that this is an image of something that can feel emotions,,44,BI2A00044,definitely no,-3,1277,us,keep4029,emotions,A1A7U8TF7JAMGN,college_bachDegree,NA,white,male,39,none,I think that this is an image of something that can feel emotions,,45,BI2A00048,definitely no,-3,646,us,keep4030,emotions,A1A7U8TF7JAMGN,college_bachDegree,NA,white,male,39,none,I think that this is an image of something that can feel emotions,,46,BI2A00001,maybe yes,1,1974,us,keep4031,emotions,A1A7U8TF7JAMGN,college_bachDegree,NA,white,male,39,none,I think that this is an image of something that can feel emotions,,47,BI2A00023,equally yes/no,0,3269,us,keep4032,emotions,A1A7U8TF7JAMGN,college_bachDegree,NA,white,male,39,none,I think that this is an image of something that can feel emotions,,48,BI2A00027,definitely no,-3,2647,us,keep3169,hungry,A1AOB9O0NEFXMW,grad_degree,NA,asian_southAsian,female,43,hinduism,"I I think this one can feel the hunger",Thank you,1,BI2A00009,maybe no,-1,11221,india,keep3170,hungry,A1AOB9O0NEFXMW,grad_degree,NA,asian_southAsian,female,43,hinduism,"I I think this one can feel the hunger",Thank you,2,BI2A00005,maybe yes,1,5853,india,keep3171,hungry,A1AOB9O0NEFXMW,grad_degree,NA,asian_southAsian,female,43,hinduism,"I I think this one can feel the hunger",Thank you,3,BI2A00016,maybe yes,1,5422,india,keep3172,hungry,A1AOB9O0NEFXMW,grad_degree,NA,asian_southAsian,female,43,hinduism,"I I think this one can feel the hunger",Thank you,4,BI2A00043,probably yes,2,2890,india,keep3173,hungry,A1AOB9O0NEFXMW,grad_degree,NA,asian_southAsian,female,43,hinduism,"I I think this one can feel the hunger",Thank you,5,BI2A00001,probably yes,2,4874,india,keep3174,hungry,A1AOB9O0NEFXMW,grad_degree,NA,asian_southAsian,female,43,hinduism,"I I think this one can feel the hunger",Thank you,6,BI2A00041,probably yes,2,3406,india,keep3175,hungry,A1AOB9O0NEFXMW,grad_degree,NA,asian_southAsian,female,43,hinduism,"I I think this one can feel the hunger",Thank you,7,BI2A00021,definitely no,-3,3606,india,keep3176,hungry,A1AOB9O0NEFXMW,grad_degree,NA,asian_southAsian,female,43,hinduism,"I I think this one can feel the hunger",Thank you,8,BI2A00022,definitely no,-3,3996,india,keep3177,hungry,A1AOB9O0NEFXMW,grad_degree,NA,asian_southAsian,female,43,hinduism,"I I think this one can feel the hunger",Thank you,9,BI2A00014,maybe yes,1,3757,india,keep3178,hungry,A1AOB9O0NEFXMW,grad_degree,NA,asian_southAsian,female,43,hinduism,"I I think this one can feel the hunger",Thank you,10,BI2A00023,probably no,-2,5241,india,keep3179,hungry,A1AOB9O0NEFXMW,grad_degree,NA,asian_southAsian,female,43,hinduism,"I I think this one can feel the hunger",Thank you,11,BI2A00046,definitely no,-3,4100,india,keep3180,hungry,A1AOB9O0NEFXMW,grad_degree,NA,asian_southAsian,female,43,hinduism,"I I think this one can feel the hunger",Thank you,12,BI2A00003,definitely no,-3,3605,india,keep3181,hungry,A1AOB9O0NEFXMW,grad_degree,NA,asian_southAsian,female,43,hinduism,"I I think this one can feel the hunger",Thank you,13,BI2A00028,definitely no,-3,3646,india,keep3182,hungry,A1AOB9O0NEFXMW,grad_degree,NA,asian_southAsian,female,43,hinduism,"I I think this one can feel the hunger",Thank you,14,BI2A00025,definitely no,-3,3722,india,keep3183,hungry,A1AOB9O0NEFXMW,grad_degree,NA,asian_southAsian,female,43,hinduism,"I I think this one can feel the hunger",Thank you,15,BI2A00039,definitely no,-3,3098,india,keep3184,hungry,A1AOB9O0NEFXMW,grad_degree,NA,asian_southAsian,female,43,hinduism,"I I think this one can feel the hunger",Thank you,16,BI2A00038,definitely no,-3,3022,india,keep3185,hungry,A1AOB9O0NEFXMW,grad_degree,NA,asian_southAsian,female,43,hinduism,"I I think this one can feel the hunger",Thank you,17,BI2A00029,definitely no,-3,5027,india,keep3186,hungry,A1AOB9O0NEFXMW,grad_degree,NA,asian_southAsian,female,43,hinduism,"I I think this one can feel the hunger",Thank you,18,BI2A00013,definitely no,-3,3974,india,keep3187,hungry,A1AOB9O0NEFXMW,grad_degree,NA,asian_southAsian,female,43,hinduism,"I I think this one can feel the hunger",Thank you,19,BI2A00020,maybe no,-1,6282,india,keep3188,hungry,A1AOB9O0NEFXMW,grad_degree,NA,asian_southAsian,female,43,hinduism,"I I think this one can feel the hunger",Thank you,20,BI2A00031,definitely no,-3,3521,india,keep3189,hungry,A1AOB9O0NEFXMW,grad_degree,NA,asian_southAsian,female,43,hinduism,"I I think this one can feel the hunger",Thank you,21,BI2A00026,definitely no,-3,3187,india,keep3190,hungry,A1AOB9O0NEFXMW,grad_degree,NA,asian_southAsian,female,43,hinduism,"I I think this one can feel the hunger",Thank you,22,BI2A00007,definitely no,-3,3100,india,keep3191,hungry,A1AOB9O0NEFXMW,grad_degree,NA,asian_southAsian,female,43,hinduism,"I I think this one can feel the hunger",Thank you,23,BI2A00017,definitely no,-3,3793,india,keep3192,hungry,A1AOB9O0NEFXMW,grad_degree,NA,asian_southAsian,female,43,hinduism,"I I think this one can feel the hunger",Thank you,24,BI2A00024,definitely no,-3,3087,india,keep3193,hungry,A1AOB9O0NEFXMW,grad_degree,NA,asian_southAsian,female,43,hinduism,"I I think this one can feel the hunger",Thank you,25,BI2A00004,maybe yes,1,4518,india,keep3194,hungry,A1AOB9O0NEFXMW,grad_degree,NA,asian_southAsian,female,43,hinduism,"I I think this one can feel the hunger",Thank you,26,BI2A00042,maybe yes,1,2294,india,keep3195,hungry,A1AOB9O0NEFXMW,grad_degree,NA,asian_southAsian,female,43,hinduism,"I I think this one can feel the hunger",Thank you,27,BI2A00018,definitely no,-3,3339,india,keep3196,hungry,A1AOB9O0NEFXMW,grad_degree,NA,asian_southAsian,female,43,hinduism,"I I think this one can feel the hunger",Thank you,28,BI2A00040,definitely no,-3,3358,india,keep3197,hungry,A1AOB9O0NEFXMW,grad_degree,NA,asian_southAsian,female,43,hinduism,"I I think this one can feel the hunger",Thank you,29,BI2A00048,definitely no,-3,15620,india,keep3198,hungry,A1AOB9O0NEFXMW,grad_degree,NA,asian_southAsian,female,43,hinduism,"I I think this one can feel the hunger",Thank you,30,BI2A00044,definitely no,-3,4525,india,keep3199,hungry,A1AOB9O0NEFXMW,grad_degree,NA,asian_southAsian,female,43,hinduism,"I I think this one can feel the hunger",Thank you,31,BI2A00006,probably yes,2,3207,india,keep3200,hungry,A1AOB9O0NEFXMW,grad_degree,NA,asian_southAsian,female,43,hinduism,"I I think this one can feel the hunger",Thank you,32,BI2A00002,probably yes,2,2321,india,keep3201,hungry,A1AOB9O0NEFXMW,grad_degree,NA,asian_southAsian,female,43,hinduism,"I I think this one can feel the hunger",Thank you,33,BI2A00034,probably yes,2,2528,india,keep3202,hungry,A1AOB9O0NEFXMW,grad_degree,NA,asian_southAsian,female,43,hinduism,"I I think this one can feel the hunger",Thank you,34,BI2A00037,probably yes,2,2308,india,keep3203,hungry,A1AOB9O0NEFXMW,grad_degree,NA,asian_southAsian,female,43,hinduism,"I I think this one can feel the hunger",Thank you,35,BI2A00019,maybe yes,1,3721,india,keep3204,hungry,A1AOB9O0NEFXMW,grad_degree,NA,asian_southAsian,female,43,hinduism,"I I think this one can feel the hunger",Thank you,36,BI2A00032,definitely no,-3,3757,india,keep3205,hungry,A1AOB9O0NEFXMW,grad_degree,NA,asian_southAsian,female,43,hinduism,"I I think this one can feel the hunger",Thank you,37,BI2A00036,definitely no,-3,3071,india,keep3206,hungry,A1AOB9O0NEFXMW,grad_degree,NA,asian_southAsian,female,43,hinduism,"I I think this one can feel the hunger",Thank you,38,BI2A00010,definitely no,-3,2980,india,keep3207,hungry,A1AOB9O0NEFXMW,grad_degree,NA,asian_southAsian,female,43,hinduism,"I I think this one can feel the hunger",Thank you,39,BI2A00047,definitely no,-3,2528,india,keep3208,hungry,A1AOB9O0NEFXMW,grad_degree,NA,asian_southAsian,female,43,hinduism,"I I think this one can feel the hunger",Thank you,40,BI2A00035,definitely no,-3,3406,india,keep3209,hungry,A1AOB9O0NEFXMW,grad_degree,NA,asian_southAsian,female,43,hinduism,"I I think this one can feel the hunger",Thank you,41,BI2A00008,definitely no,-3,2900,india,keep3210,hungry,A1AOB9O0NEFXMW,grad_degree,NA,asian_southAsian,female,43,hinduism,"I I think this one can feel the hunger",Thank you,42,BI2A00015,probably yes,2,2441,india,keep3211,hungry,A1AOB9O0NEFXMW,grad_degree,NA,asian_southAsian,female,43,hinduism,"I I think this one can feel the hunger",Thank you,43,BI2A00011,probably yes,2,5379,india,keep3212,hungry,A1AOB9O0NEFXMW,grad_degree,NA,asian_southAsian,female,43,hinduism,"I I think this one can feel the hunger",Thank you,44,BI2A00033,probably yes,2,2309,india,keep3213,hungry,A1AOB9O0NEFXMW,grad_degree,NA,asian_southAsian,female,43,hinduism,"I I think this one can feel the hunger",Thank you,45,BI2A00045,probably yes,2,2931,india,keep3214,hungry,A1AOB9O0NEFXMW,grad_degree,NA,asian_southAsian,female,43,hinduism,"I I think this one can feel the hunger",Thank you,46,BI2A00027,probably no,-2,4039,india,keep3215,hungry,A1AOB9O0NEFXMW,grad_degree,NA,asian_southAsian,female,43,hinduism,"I I think this one can feel the hunger",Thank you,47,BI2A00030,definitely no,-3,2742,india,keep3216,hungry,A1AOB9O0NEFXMW,grad_degree,NA,asian_southAsian,female,43,hinduism,"I I think this one can feel the hunger",Thank you,48,BI2A00012,definitely no,-3,3066,india,keep4129,pain,A1BFX66KDF0059,hs_diploma,NA,white,female,27,christianity_protestant,I am quite sure it can feel pain,,1,BI2A00019,probably yes,2,4891,us,keep4130,pain,A1BFX66KDF0059,hs_diploma,NA,white,female,27,christianity_protestant,I am quite sure it can feel pain,,2,BI2A00042,probably yes,2,4263,us,keep4131,pain,A1BFX66KDF0059,hs_diploma,NA,white,female,27,christianity_protestant,I am quite sure it can feel pain,,3,BI2A00013,definitely yes,3,5072,us,keep4132,pain,A1BFX66KDF0059,hs_diploma,NA,white,female,27,christianity_protestant,I am quite sure it can feel pain,,4,BI2A00048,definitely yes,3,2984,us,keep4133,pain,A1BFX66KDF0059,hs_diploma,NA,white,female,27,christianity_protestant,I am quite sure it can feel pain,,5,BI2A00035,definitely no,-3,5217,us,keep