"","condition","worker_id","education","english_native","ethnicity","gender","age","religion","comments","trialNum","swatch","response","responseCoded","rt","country"
"1","hungry","A3DFCGAXJHV1P9","college_bachDegree","no","asian_southAsian","male",63,"hinduism","A new experience.I didn't have any cue of what to expect in the coming experiment.Any way it was interesting.Thank you.",1,"BI2A00034","maybe yes",1,20615,"india"
"2","hungry","A3DFCGAXJHV1P9","college_bachDegree","no","asian_southAsian","male",63,"hinduism","A new experience.I didn't have any cue of what to expect in the coming experiment.Any way it was interesting.Thank you.",2,"BI2A00011","probably yes",2,7362,"india"
"3","hungry","A3DFCGAXJHV1P9","college_bachDegree","no","asian_southAsian","male",63,"hinduism","A new experience.I didn't have any cue of what to expect in the coming experiment.Any way it was interesting.Thank you.",3,"BI2A00010","probably yes",2,5997,"india"
"4","hungry","A3DFCGAXJHV1P9","college_bachDegree","no","asian_southAsian","male",63,"hinduism","A new experience.I didn't have any cue of what to expect in the coming experiment.Any way it was interesting.Thank you.",4,"BI2A00009","definitely yes",3,5728,"india"
"5","hungry","A3DFCGAXJHV1P9","college_bachDegree","no","asian_southAsian","male",63,"hinduism","A new experience.I didn't have any cue of what to expect in the coming experiment.Any way it was interesting.Thank you.",5,"BI2A00029","maybe no",-1,8787,"india"
"6","hungry","A3DFCGAXJHV1P9","college_bachDegree","no","asian_southAsian","male",63,"hinduism","A new experience.I didn't have any cue of what to expect in the coming experiment.Any way it was interesting.Thank you.",6,"BI2A00046","definitely no",-3,3247,"india"
"7","hungry","A3DFCGAXJHV1P9","college_bachDegree","no","asian_southAsian","male",63,"hinduism","A new experience.I didn't have any cue of what to expect in the coming experiment.Any way it was interesting.Thank you.",7,"BI2A00038","definitely no",-3,2969,"india"
"8","hungry","A3DFCGAXJHV1P9","college_bachDegree","no","asian_southAsian","male",63,"hinduism","A new experience.I didn't have any cue of what to expect in the coming experiment.Any way it was interesting.Thank you.",8,"BI2A00039","definitely no",-3,3994,"india"
"9","hungry","A3DFCGAXJHV1P9","college_bachDegree","no","asian_southAsian","male",63,"hinduism","A new experience.I didn't have any cue of what to expect in the coming experiment.Any way it was interesting.Thank you.",9,"BI2A00048","definitely no",-3,1855,"india"
"10","hungry","A3DFCGAXJHV1P9","college_bachDegree","no","asian_southAsian","male",63,"hinduism","A new experience.I didn't have any cue of what to expect in the coming experiment.Any way it was interesting.Thank you.",10,"BI2A00012","equally yes/no",0,5466,"india"
"11","hungry","A3DFCGAXJHV1P9","college_bachDegree","no","asian_southAsian","male",63,"hinduism","A new experience.I didn't have any cue of what to expect in the coming experiment.Any way it was interesting.Thank you.",11,"BI2A00028","maybe no",-1,2783,"india"
"12","hungry","A3DFCGAXJHV1P9","college_bachDegree","no","asian_southAsian","male",63,"hinduism","A new experience.I didn't have any cue of what to expect in the coming experiment.Any way it was interesting.Thank you.",12,"BI2A00042","definitely no",-3,11346,"india"
"13","hungry","A3DFCGAXJHV1P9","college_bachDegree","no","asian_southAsian","male",63,"hinduism","A new experience.I didn't have any cue of what to expect in the coming experiment.Any way it was interesting.Thank you.",13,"BI2A00030","definitely no",-3,2154,"india"
"14","hungry","A3DFCGAXJHV1P9","college_bachDegree","no","asian_southAsian","male",63,"hinduism","A new experience.I didn't have any cue of what to expect in the coming experiment.Any way it was interesting.Thank you.",14,"BI2A00023","maybe yes",1,3787,"india"
"15","hungry","A3DFCGAXJHV1P9","college_bachDegree","no","asian_southAsian","male",63,"hinduism","A new experience.I didn't have any cue of what to expect in the coming experiment.Any way it was interesting.Thank you.",15,"BI2A00031","definitely no",-3,2844,"india"
"16","hungry","A3DFCGAXJHV1P9","college_bachDegree","no","asian_southAsian","male",63,"hinduism","A new experience.I didn't have any cue of what to expect in the coming experiment.Any way it was interesting.Thank you.",16,"BI2A00017","definitely no",-3,2319,"india"
"17","hungry","A3DFCGAXJHV1P9","college_bachDegree","no","asian_southAsian","male",63,"hinduism","A new experience.I didn't have any cue of what to expect in the coming experiment.Any way it was interesting.Thank you.",17,"BI2A00041","probably no",-2,2633,"india"
"18","hungry","A3DFCGAXJHV1P9","college_bachDegree","no","asian_southAsian","male",63,"hinduism","A new experience.I didn't have any cue of what to expect in the coming experiment.Any way it was interesting.Thank you.",18,"BI2A00014","equally yes/no",0,7375,"india"
"19","hungry","A3DFCGAXJHV1P9","college_bachDegree","no","asian_southAsian","male",63,"hinduism","A new experience.I didn't have any cue of what to expect in the coming experiment.Any way it was interesting.Thank you.",19,"BI2A00007","definitely yes",3,5318,"india"
"20","hungry","A3DFCGAXJHV1P9","college_bachDegree","no","asian_southAsian","male",63,"hinduism","A new experience.I didn't have any cue of what to expect in the coming experiment.Any way it was interesting.Thank you.",20,"BI2A00035","definitely no",-3,2499,"india"
"21","hungry","A3DFCGAXJHV1P9","college_bachDegree","no","asian_southAsian","male",63,"hinduism","A new experience.I didn't have any cue of what to expect in the coming experiment.Any way it was interesting.Thank you.",21,"BI2A00025","equally yes/no",0,4167,"india"
"22","hungry","A3DFCGAXJHV1P9","college_bachDegree","no","asian_southAsian","male",63,"hinduism","A new experience.I didn't have any cue of what to expect in the coming experiment.Any way it was interesting.Thank you.",22,"BI2A00027","maybe no",-1,3964,"india"
"23","hungry","A3DFCGAXJHV1P9","college_bachDegree","no","asian_southAsian","male",63,"hinduism","A new experience.I didn't have any cue of what to expect in the coming experiment.Any way it was interesting.Thank you.",23,"BI2A00003","probably yes",2,2351,"india"
"24","hungry","A3DFCGAXJHV1P9","college_bachDegree","no","asian_southAsian","male",63,"hinduism","A new experience.I didn't have any cue of what to expect in the coming experiment.Any way it was interesting.Thank you.",24,"BI2A00021","probably no",-2,2397,"india"
"25","hungry","A3DFCGAXJHV1P9","college_bachDegree","no","asian_southAsian","male",63,"hinduism","A new experience.I didn't have any cue of what to expect in the coming experiment.Any way it was interesting.Thank you.",25,"BI2A00002","definitely yes",3,1837,"india"
"26","hungry","A3DFCGAXJHV1P9","college_bachDegree","no","asian_southAsian","male",63,"hinduism","A new experience.I didn't have any cue of what to expect in the coming experiment.Any way it was interesting.Thank you.",26,"BI2A00018","definitely no",-3,2351,"india"
"27","hungry","A3DFCGAXJHV1P9","college_bachDegree","no","asian_southAsian","male",63,"hinduism","A new experience.I didn't have any cue of what to expect in the coming experiment.Any way it was interesting.Thank you.",27,"BI2A00045","definitely no",-3,1579,"india"
"28","hungry","A3DFCGAXJHV1P9","college_bachDegree","no","asian_southAsian","male",63,"hinduism","A new experience.I didn't have any cue of what to expect in the coming experiment.Any way it was interesting.Thank you.",28,"BI2A00004","probably yes",2,2550,"india"
"29","hungry","A3DFCGAXJHV1P9","college_bachDegree","no","asian_southAsian","male",63,"hinduism","A new experience.I didn't have any cue of what to expect in the coming experiment.Any way it was interesting.Thank you.",29,"BI2A00005","definitely yes",3,1820,"india"
"30","hungry","A3DFCGAXJHV1P9","college_bachDegree","no","asian_southAsian","male",63,"hinduism","A new experience.I didn't have any cue of what to expect in the coming experiment.Any way it was interesting.Thank you.",30,"BI2A00008","definitely yes",3,1996,"india"
"31","hungry","A3DFCGAXJHV1P9","college_bachDegree","no","asian_southAsian","male",63,"hinduism","A new experience.I didn't have any cue of what to expect in the coming experiment.Any way it was interesting.Thank you.",31,"BI2A00032","probably no",-2,2285,"india"
"32","hungry","A3DFCGAXJHV1P9","college_bachDegree","no","asian_southAsian","male",63,"hinduism","A new experience.I didn't have any cue of what to expect in the coming experiment.Any way it was interesting.Thank you.",32,"BI2A00013","probably yes",2,1699,"india"
"33","hungry","A3DFCGAXJHV1P9","college_bachDegree","no","asian_southAsian","male",63,"hinduism","A new experience.I didn't have any cue of what to expect in the coming experiment.Any way it was interesting.Thank you.",33,"BI2A00040","definitely no",-3,1616,"india"
"34","hungry","A3DFCGAXJHV1P9","college_bachDegree","no","asian_southAsian","male",63,"hinduism","A new experience.I didn't have any cue of what to expect in the coming experiment.Any way it was interesting.Thank you.",34,"BI2A00024","definitely yes",3,3388,"india"
"35","hungry","A3DFCGAXJHV1P9","college_bachDegree","no","asian_southAsian","male",63,"hinduism","A new experience.I didn't have any cue of what to expect in the coming experiment.Any way it was interesting.Thank you.",35,"BI2A00047","equally yes/no",0,3795,"india"
"36","hungry","A3DFCGAXJHV1P9","college_bachDegree","no","asian_southAsian","male",63,"hinduism","A new experience.I didn't have any cue of what to expect in the coming experiment.Any way it was interesting.Thank you.",36,"BI2A00019","maybe yes",1,1952,"india"
"37","hungry","A3DFCGAXJHV1P9","college_bachDegree","no","asian_southAsian","male",63,"hinduism","A new experience.I didn't have any cue of what to expect in the coming experiment.Any way it was interesting.Thank you.",37,"BI2A00022","probably no",-2,2051,"india"
"38","hungry","A3DFCGAXJHV1P9","college_bachDegree","no","asian_southAsian","male",63,"hinduism","A new experience.I didn't have any cue of what to expect in the coming experiment.Any way it was interesting.Thank you.",38,"BI2A00043","probably no",-2,3400,"india"
"39","hungry","A3DFCGAXJHV1P9","college_bachDegree","no","asian_southAsian","male",63,"hinduism","A new experience.I didn't have any cue of what to expect in the coming experiment.Any way it was interesting.Thank you.",39,"BI2A00020","equally yes/no",0,2303,"india"
"40","hungry","A3DFCGAXJHV1P9","college_bachDegree","no","asian_southAsian","male",63,"hinduism","A new experience.I didn't have any cue of what to expect in the coming experiment.Any way it was interesting.Thank you.",40,"BI2A00037","probably no",-2,3011,"india"
"41","hungry","A3DFCGAXJHV1P9","college_bachDegree","no","asian_southAsian","male",63,"hinduism","A new experience.I didn't have any cue of what to expect in the coming experiment.Any way it was interesting.Thank you.",41,"BI2A00016","equally yes/no",0,3005,"india"
"42","hungry","A3DFCGAXJHV1P9","college_bachDegree","no","asian_southAsian","male",63,"hinduism","A new experience.I didn't have any cue of what to expect in the coming experiment.Any way it was interesting.Thank you.",42,"BI2A00044","definitely no",-3,1881,"india"
"43","hungry","A3DFCGAXJHV1P9","college_bachDegree","no","asian_southAsian","male",63,"hinduism","A new experience.I didn't have any cue of what to expect in the coming experiment.Any way it was interesting.Thank you.",43,"BI2A00006","definitely yes",3,3166,"india"
"44","hungry","A3DFCGAXJHV1P9","college_bachDegree","no","asian_southAsian","male",63,"hinduism","A new experience.I didn't have any cue of what to expect in the coming experiment.Any way it was interesting.Thank you.",44,"BI2A00026","probably yes",2,3117,"india"
"45","hungry","A3DFCGAXJHV1P9","college_bachDegree","no","asian_southAsian","male",63,"hinduism","A new experience.I didn't have any cue of what to expect in the coming experiment.Any way it was interesting.Thank you.",45,"BI2A00015","definitely yes",3,2150,"india"
"46","hungry","A3DFCGAXJHV1P9","college_bachDegree","no","asian_southAsian","male",63,"hinduism","A new experience.I didn't have any cue of what to expect in the coming experiment.Any way it was interesting.Thank you.",46,"BI2A00036","maybe no",-1,3434,"india"
"47","hungry","A3DFCGAXJHV1P9","college_bachDegree","no","asian_southAsian","male",63,"hinduism","A new experience.I didn't have any cue of what to expect in the coming experiment.Any way it was interesting.Thank you.",47,"BI2A00033","maybe no",-1,5381,"india"
"48","hungry","A3DFCGAXJHV1P9","college_bachDegree","no","asian_southAsian","male",63,"hinduism","A new experience.I didn't have any cue of what to expect in the coming experiment.Any way it was interesting.Thank you.",48,"BI2A00001","probably yes",2,2634,"india"
"49","hungry","A2LWK1B4X25M5Q","grad_some","yes_multiple","asian_southAsian","male",35,"hinduism","nothing",1,"BI2A00015","definitely no",-3,8385,"india"
"50","hungry","A2LWK1B4X25M5Q","grad_some","yes_multiple","asian_southAsian","male",35,"hinduism","nothing",2,"BI2A00001","definitely no",-3,5770,"india"
"51","hungry","A2LWK1B4X25M5Q","grad_some","yes_multiple","asian_southAsian","male",35,"hinduism","nothing",3,"BI2A00016","probably no",-2,7835,"india"
"52","hungry","A2LWK1B4X25M5Q","grad_some","yes_multiple","asian_southAsian","male",35,"hinduism","nothing",4,"BI2A00041","definitely no",-3,3123,"india"
"53","hungry","A2LWK1B4X25M5Q","grad_some","yes_multiple","asian_southAsian","male",35,"hinduism","nothing",5,"BI2A00020","probably no",-2,3497,"india"
"54","hungry","A2LWK1B4X25M5Q","grad_some","yes_multiple","asian_southAsian","male",35,"hinduism","nothing",6,"BI2A00034","definitely no",-3,3781,"india"
"55","hungry","A2LWK1B4X25M5Q","grad_some","yes_multiple","asian_southAsian","male",35,"hinduism","nothing",7,"BI2A00043","maybe no",-1,3452,"india"
"56","hungry","A2LWK1B4X25M5Q","grad_some","yes_multiple","asian_southAsian","male",35,"hinduism","nothing",8,"BI2A00045","probably no",-2,1766,"india"
"57","hungry","A2LWK1B4X25M5Q","grad_some","yes_multiple","asian_southAsian","male",35,"hinduism","nothing",9,"BI2A00036","maybe no",-1,2368,"india"
"58","hungry","A2LWK1B4X25M5Q","grad_some","yes_multiple","asian_southAsian","male",35,"hinduism","nothing",10,"BI2A00013","definitely no",-3,2692,"india"
"59","hungry","A2LWK1B4X25M5Q","grad_some","yes_multiple","asian_southAsian","male",35,"hinduism","nothing",11,"BI2A00017","probably no",-2,2134,"india"
"60","hungry","A2LWK1B4X25M5Q","grad_some","yes_multiple","asian_southAsian","male",35,"hinduism","nothing",12,"BI2A00025","definitely no",-3,2519,"india"
"61","hungry","A2LWK1B4X25M5Q","grad_some","yes_multiple","asian_southAsian","male",35,"hinduism","nothing",13,"BI2A00042","definitely no",-3,1905,"india"
"62","hungry","A2LWK1B4X25M5Q","grad_some","yes_multiple","asian_southAsian","male",35,"hinduism","nothing",14,"BI2A00009","definitely no",-3,1988,"india"
"63","hungry","A2LWK1B4X25M5Q","grad_some","yes_multiple","asian_southAsian","male",35,"hinduism","nothing",15,"BI2A00006","maybe no",-1,2114,"india"
"64","hungry","A2LWK1B4X25M5Q","grad_some","yes_multiple","asian_southAsian","male",35,"hinduism","nothing",16,"BI2A00005","probably no",-2,2243,"india"
"65","hungry","A2LWK1B4X25M5Q","grad_some","yes_multiple","asian_southAsian","male",35,"hinduism","nothing",17,"BI2A00046","probably no",-2,2249,"india"
"66","hungry","A2LWK1B4X25M5Q","grad_some","yes_multiple","asian_southAsian","male",35,"hinduism","nothing",18,"BI2A00030","definitely no",-3,2221,"india"
"67","hungry","A2LWK1B4X25M5Q","grad_some","yes_multiple","asian_southAsian","male",35,"hinduism","nothing",19,"BI2A00033","definitely no",-3,1725,"india"
"68","hungry","A2LWK1B4X25M5Q","grad_some","yes_multiple","asian_southAsian","male",35,"hinduism","nothing",20,"BI2A00011","definitely no",-3,2093,"india"
"69","hungry","A2LWK1B4X25M5Q","grad_some","yes_multiple","asian_southAsian","male",35,"hinduism","nothing",21,"BI2A00019","probably no",-2,6099,"india"
"70","hungry","A2LWK1B4X25M5Q","grad_some","yes_multiple","asian_southAsian","male",35,"hinduism","nothing",22,"BI2A00002","probably no",-2,2822,"india"
"71","hungry","A2LWK1B4X25M5Q","grad_some","yes_multiple","asian_southAsian","male",35,"hinduism","nothing",23,"BI2A00024","definitely no",-3,2772,"india"
"72","hungry","A2LWK1B4X25M5Q","grad_some","yes_multiple","asian_southAsian","male",35,"hinduism","nothing",24,"BI2A00010","probably no",-2,2578,"india"
"73","hungry","A2LWK1B4X25M5Q","grad_some","yes_multiple","asian_southAsian","male",35,"hinduism","nothing",25,"BI2A00040","maybe no",-1,2298,"india"
"74","hungry","A2LWK1B4X25M5Q","grad_some","yes_multiple","asian_southAsian","male",35,"hinduism","nothing",26,"BI2A00018","probably no",-2,2199,"india"
"75","hungry","A2LWK1B4X25M5Q","grad_some","yes_multiple","asian_southAsian","male",35,"hinduism","nothing",27,"BI2A00023","probably no",-2,2257,"india"
"76","hungry","A2LWK1B4X25M5Q","grad_some","yes_multiple","asian_southAsian","male",35,"hinduism","nothing",28,"BI2A00048","definitely no",-3,1795,"india"
"77","hungry","A2LWK1B4X25M5Q","grad_some","yes_multiple","asian_southAsian","male",35,"hinduism","nothing",29,"BI2A00022","definitely no",-3,1690,"india"
"78","hungry","A2LWK1B4X25M5Q","grad_some","yes_multiple","asian_southAsian","male",35,"hinduism","nothing",30,"BI2A00021","definitely no",-3,1188,"india"
"79","hungry","A2LWK1B4X25M5Q","grad_some","yes_multiple","asian_southAsian","male",35,"hinduism","nothing",31,"BI2A00038","definitely no",-3,1043,"india"
"80","hungry","A2LWK1B4X25M5Q","grad_some","yes_multiple","asian_southAsian","male",35,"hinduism","nothing",32,"BI2A00039","probably no",-2,1484,"india"
"81","hungry","A2LWK1B4X25M5Q","grad_some","yes_multiple","asian_southAsian","male",35,"hinduism","nothing",33,"BI2A00047","probably no",-2,1373,"india"
"82","hungry","A2LWK1B4X25M5Q","grad_some","yes_multiple","asian_southAsian","male",35,"hinduism","nothing",34,"BI2A00031","probably no",-2,1777,"india"
"83","hungry","A2LWK1B4X25M5Q","grad_some","yes_multiple","asian_southAsian","male",35,"hinduism","nothing",35,"BI2A00027","probably no",-2,1506,"india"
"84","hungry","A2LWK1B4X25M5Q","grad_some","yes_multiple","asian_southAsian","male",35,"hinduism","nothing",36,"BI2A00028","definitely no",-3,1707,"india"
"85","hungry","A2LWK1B4X25M5Q","grad_some","yes_multiple","asian_southAsian","male",35,"hinduism","nothing",37,"BI2A00029","definitely no",-3,1078,"india"
"86","hungry","A2LWK1B4X25M5Q","grad_some","yes_multiple","asian_southAsian","male",35,"hinduism","nothing",38,"BI2A00014","probably no",-2,1199,"india"
"87","hungry","A2LWK1B4X25M5Q","grad_some","yes_multiple","asian_southAsian","male",35,"hinduism","nothing",39,"BI2A00008","definitely no",-3,2303,"india"
"88","hungry","A2LWK1B4X25M5Q","grad_some","yes_multiple","asian_southAsian","male",35,"hinduism","nothing",40,"BI2A00003","definitely no",-3,823,"india"
"89","hungry","A2LWK1B4X25M5Q","grad_some","yes_multiple","asian_southAsian","male",35,"hinduism","nothing",41,"BI2A00026","probably no",-2,1335,"india"
"90","hungry","A2LWK1B4X25M5Q","grad_some","yes_multiple","asian_southAsian","male",35,"hinduism","nothing",42,"BI2A00044","definitely no",-3,1218,"india"
"91","hungry","A2LWK1B4X25M5Q","grad_some","yes_multiple","asian_southAsian","male",35,"hinduism","nothing",43,"BI2A00037","definitely no",-3,1666,"india"
"92","hungry","A2LWK1B4X25M5Q","grad_some","yes_multiple","asian_southAsian","male",35,"hinduism","nothing",44,"BI2A00035","probably no",-2,943,"india"
"93","hungry","A2LWK1B4X25M5Q","grad_some","yes_multiple","asian_southAsian","male",35,"hinduism","nothing",45,"BI2A00012","definitely no",-3,1883,"india"
"94","hungry","A2LWK1B4X25M5Q","grad_some","yes_multiple","asian_southAsian","male",35,"hinduism","nothing",46,"BI2A00007","probably no",-2,1845,"india"
"95","hungry","A2LWK1B4X25M5Q","grad_some","yes_multiple","asian_southAsian","male",35,"hinduism","nothing",47,"BI2A00004","definitely no",-3,926,"india"
"96","hungry","A2LWK1B4X25M5Q","grad_some","yes_multiple","asian_southAsian","male",35,"hinduism","nothing",48,"BI2A00032","probably no",-2,704,"india"
"97","happy","A2KYUAUPZFQS12","college_bachDegree","no_moderatelywell","asian_southAsian","male",28,"islam","",1,"BI2A00040","maybe no",-1,21006,"india"
"98","happy","A2KYUAUPZFQS12","college_bachDegree","no_moderatelywell","asian_southAsian","male",28,"islam","",2,"BI2A00010","probably no",-2,3282,"india"
"99","happy","A2KYUAUPZFQS12","college_bachDegree","no_moderatelywell","asian_southAsian","male",28,"islam","",3,"BI2A00039","probably no",-2,4828,"india"
"100","happy","A2KYUAUPZFQS12","college_bachDegree","no_moderatelywell","asian_southAsian","male",28,"islam","",4,"BI2A00035","probably no",-2,7938,"india"
"101","happy","A2KYUAUPZFQS12","college_bachDegree","no_moderatelywell","asian_southAsian","male",28,"islam","",5,"BI2A00012","definitely no",-3,2942,"india"
"102","happy","A2KYUAUPZFQS12","college_bachDegree","no_moderatelywell","asian_southAsian","male",28,"islam","",6,"BI2A00047","definitely no",-3,1438,"india"
"103","happy","A2KYUAUPZFQS12","college_bachDegree","no_moderatelywell","asian_southAsian","male",28,"islam","",7,"BI2A00003","definitely no",-3,1339,"india"
"104","happy","A2KYUAUPZFQS12","college_bachDegree","no_moderatelywell","asian_southAsian","male",28,"islam","",8,"BI2A00027","definitely no",-3,1220,"india"
"105","happy","A2KYUAUPZFQS12","college_bachDegree","no_moderatelywell","asian_southAsian","male",28,"islam","",9,"BI2A00046","definitely no",-3,1515,"india"
"106","happy","A2KYUAUPZFQS12","college_bachDegree","no_moderatelywell","asian_southAsian","male",28,"islam","",10,"BI2A00002","definitely no",-3,1421,"india"
"107","happy","A2KYUAUPZFQS12","college_bachDegree","no_moderatelywell","asian_southAsian","male",28,"islam","",11,"BI2A00031","definitely no",-3,4327,"india"
"108","happy","A2KYUAUPZFQS12","college_bachDegree","no_moderatelywell","asian_southAsian","male",28,"islam","",12,"BI2A00014","definitely no",-3,1074,"india"
"109","happy","A2KYUAUPZFQS12","college_bachDegree","no_moderatelywell","asian_southAsian","male",28,"islam","",13,"BI2A00019","definitely no",-3,6344,"india"
"110","happy","A2KYUAUPZFQS12","college_bachDegree","no_moderatelywell","asian_southAsian","male",28,"islam","",14,"BI2A00004","definitely no",-3,1075,"india"
"111","happy","A2KYUAUPZFQS12","college_bachDegree","no_moderatelywell","asian_southAsian","male",28,"islam","",15,"BI2A00042","definitely no",-3,1228,"india"
"112","happy","A2KYUAUPZFQS12","college_bachDegree","no_moderatelywell","asian_southAsian","male",28,"islam","",16,"BI2A00015","definitely no",-3,1061,"india"
"113","happy","A2KYUAUPZFQS12","college_bachDegree","no_moderatelywell","asian_southAsian","male",28,"islam","",17,"BI2A00001","maybe yes",1,7647,"india"
"114","happy","A2KYUAUPZFQS12","college_bachDegree","no_moderatelywell","asian_southAsian","male",28,"islam","",18,"BI2A00011","maybe yes",1,9421,"india"
"115","happy","A2KYUAUPZFQS12","college_bachDegree","no_moderatelywell","asian_southAsian","male",28,"islam","",19,"BI2A00036","maybe no",-1,3338,"india"
"116","happy","A2KYUAUPZFQS12","college_bachDegree","no_moderatelywell","asian_southAsian","male",28,"islam","",20,"BI2A00022","probably no",-2,3283,"india"
"117","happy","A2KYUAUPZFQS12","college_bachDegree","no_moderatelywell","asian_southAsian","male",28,"islam","",21,"BI2A00041","maybe yes",1,10749,"india"
"118","happy","A2KYUAUPZFQS12","college_bachDegree","no_moderatelywell","asian_southAsian","male",28,"islam","",22,"BI2A00021","probably no",-2,2012,"india"
"119","happy","A2KYUAUPZFQS12","college_bachDegree","no_moderatelywell","asian_southAsian","male",28,"islam","",23,"BI2A00044","probably no",-2,1033,"india"
"120","happy","A2KYUAUPZFQS12","college_bachDegree","no_moderatelywell","asian_southAsian","male",28,"islam","",24,"BI2A00013","probably no",-2,2151,"india"
"121","happy","A2KYUAUPZFQS12","college_bachDegree","no_moderatelywell","asian_southAsian","male",28,"islam","",25,"BI2A00025","maybe no",-1,3914,"india"
"122","happy","A2KYUAUPZFQS12","college_bachDegree","no_moderatelywell","asian_southAsian","male",28,"islam","",26,"BI2A00018","probably no",-2,2787,"india"
"123","happy","A2KYUAUPZFQS12","college_bachDegree","no_moderatelywell","asian_southAsian","male",28,"islam","",27,"BI2A00029","probably no",-2,2331,"india"
"124","happy","A2KYUAUPZFQS12","college_bachDegree","no_moderatelywell","asian_southAsian","male",28,"islam","",28,"BI2A00016","probably no",-2,1196,"india"
"125","happy","A2KYUAUPZFQS12","college_bachDegree","no_moderatelywell","asian_southAsian","male",28,"islam","",29,"BI2A00030","probably no",-2,1692,"india"
"126","happy","A2KYUAUPZFQS12","college_bachDegree","no_moderatelywell","asian_southAsian","male",28,"islam","",30,"BI2A00017","probably no",-2,1844,"india"
"127","happy","A2KYUAUPZFQS12","college_bachDegree","no_moderatelywell","asian_southAsian","male",28,"islam","",31,"BI2A00023","probably no",-2,1204,"india"
"128","happy","A2KYUAUPZFQS12","college_bachDegree","no_moderatelywell","asian_southAsian","male",28,"islam","",32,"BI2A00005","probably no",-2,956,"india"
"129","happy","A2KYUAUPZFQS12","college_bachDegree","no_moderatelywell","asian_southAsian","male",28,"islam","",33,"BI2A00020","probably no",-2,1340,"india"
"130","happy","A2KYUAUPZFQS12","college_bachDegree","no_moderatelywell","asian_southAsian","male",28,"islam","",34,"BI2A00008","probably no",-2,1058,"india"
"131","happy","A2KYUAUPZFQS12","college_bachDegree","no_moderatelywell","asian_southAsian","male",28,"islam","",35,"BI2A00024","probably no",-2,5490,"india"
"132","happy","A2KYUAUPZFQS12","college_bachDegree","no_moderatelywell","asian_southAsian","male",28,"islam","",36,"BI2A00007","probably no",-2,772,"india"
"133","happy","A2KYUAUPZFQS12","college_bachDegree","no_moderatelywell","asian_southAsian","male",28,"islam","",37,"BI2A00048","probably no",-2,1234,"india"
"134","happy","A2KYUAUPZFQS12","college_bachDegree","no_moderatelywell","asian_southAsian","male",28,"islam","",38,"BI2A00032","probably no",-2,1244,"india"
"135","happy","A2KYUAUPZFQS12","college_bachDegree","no_moderatelywell","asian_southAsian","male",28,"islam","",39,"BI2A00045","probably yes",2,5870,"india"
"136","happy","A2KYUAUPZFQS12","college_bachDegree","no_moderatelywell","asian_southAsian","male",28,"islam","",40,"BI2A00009","probably no",-2,2664,"india"
"137","happy","A2KYUAUPZFQS12","college_bachDegree","no_moderatelywell","asian_southAsian","male",28,"islam","",41,"BI2A00033","probably no",-2,11,"india"
"138","happy","A2KYUAUPZFQS12","college_bachDegree","no_moderatelywell","asian_southAsian","male",28,"islam","",42,"BI2A00043","maybe yes",1,4034,"india"
"139","happy","A2KYUAUPZFQS12","college_bachDegree","no_moderatelywell","asian_southAsian","male",28,"islam","",43,"BI2A00026","probably no",-2,1428,"india"
"140","happy","A2KYUAUPZFQS12","college_bachDegree","no_moderatelywell","asian_southAsian","male",28,"islam","",44,"BI2A00028","probably no",-2,596,"india"
"141","happy","A2KYUAUPZFQS12","college_bachDegree","no_moderatelywell","asian_southAsian","male",28,"islam","",45,"BI2A00038","probably no",-2,621,"india"
"142","happy","A2KYUAUPZFQS12","college_bachDegree","no_moderatelywell","asian_southAsian","male",28,"islam","",46,"BI2A00037","probably no",-2,836,"india"
"143","happy","A2KYUAUPZFQS12","college_bachDegree","no_moderatelywell","asian_southAsian","male",28,"islam","",47,"BI2A00006","probably no",-2,2877,"india"
"144","happy","A2KYUAUPZFQS12","college_bachDegree","no_moderatelywell","asian_southAsian","male",28,"islam","",48,"BI2A00034","probably no",-2,1807,"india"
"145","think","A2B366AAC59SAK","college_some","no_moderatelywell","asian_southAsian","male",29,"islam","",1,"BI2A00038","maybe no",-1,29407,"india"
"146","think","A2B366AAC59SAK","college_some","no_moderatelywell","asian_southAsian","male",29,"islam","",2,"BI2A00005","probably yes",2,6517,"india"
"147","think","A2B366AAC59SAK","college_some","no_moderatelywell","asian_southAsian","male",29,"islam","",3,"BI2A00016","maybe no",-1,7359,"india"
"148","think","A2B366AAC59SAK","college_some","no_moderatelywell","asian_southAsian","male",29,"islam","",4,"BI2A00001","maybe yes",1,3640,"india"
"149","think","A2B366AAC59SAK","college_some","no_moderatelywell","asian_southAsian","male",29,"islam","",5,"BI2A00006","probably yes",2,2604,"india"
"150","think","A2B366AAC59SAK","college_some","no_moderatelywell","asian_southAsian","male",29,"islam","",6,"BI2A00029","maybe yes",1,5992,"india"
"151","think","A2B366AAC59SAK","college_some","no_moderatelywell","asian_southAsian","male",29,"islam","",7,"BI2A00004","probably yes",2,1784,"india"
"152","think","A2B366AAC59SAK","college_some","no_moderatelywell","asian_southAsian","male",29,"islam","",8,"BI2A00007","probably yes",2,1392,"india"
"153","think","A2B366AAC59SAK","college_some","no_moderatelywell","asian_southAsian","male",29,"islam","",9,"BI2A00044","maybe no",-1,6624,"india"
"154","think","A2B366AAC59SAK","college_some","no_moderatelywell","asian_southAsian","male",29,"islam","",10,"BI2A00017","probably yes",2,3215,"india"
"155","think","A2B366AAC59SAK","college_some","no_moderatelywell","asian_southAsian","male",29,"islam","",11,"BI2A00012","probably yes",2,1881,"india"
"156","think","A2B366AAC59SAK","college_some","no_moderatelywell","asian_southAsian","male",29,"islam","",12,"BI2A00014","maybe no",-1,4648,"india"
"157","think","A2B366AAC59SAK","college_some","no_moderatelywell","asian_southAsian","male",29,"islam","",13,"BI2A00009","maybe yes",1,4568,"india"
"158","think","A2B366AAC59SAK","college_some","no_moderatelywell","asian_southAsian","male",29,"islam","",14,"BI2A00035","maybe yes",1,3912,"india"
"159","think","A2B366AAC59SAK","college_some","no_moderatelywell","asian_southAsian","male",29,"islam","",15,"BI2A00019","maybe yes",1,2680,"india"
"160","think","A2B366AAC59SAK","college_some","no_moderatelywell","asian_southAsian","male",29,"islam","",16,"BI2A00023","probably no",-2,5088,"india"
"161","think","A2B366AAC59SAK","college_some","no_moderatelywell","asian_southAsian","male",29,"islam","",17,"BI2A00025","probably no",-2,3984,"india"
"162","think","A2B366AAC59SAK","college_some","no_moderatelywell","asian_southAsian","male",29,"islam","",18,"BI2A00015","maybe yes",1,2240,"india"
"163","think","A2B366AAC59SAK","college_some","no_moderatelywell","asian_southAsian","male",29,"islam","",19,"BI2A00011","probably yes",2,3632,"india"
"164","think","A2B366AAC59SAK","college_some","no_moderatelywell","asian_southAsian","male",29,"islam","",20,"BI2A00043","maybe no",-1,5571,"india"
"165","think","A2B366AAC59SAK","college_some","no_moderatelywell","asian_southAsian","male",29,"islam","",21,"BI2A00037","maybe no",-1,4188,"india"
"166","think","A2B366AAC59SAK","college_some","no_moderatelywell","asian_southAsian","male",29,"islam","",22,"BI2A00032","maybe yes",1,2704,"india"
"167","think","A2B366AAC59SAK","college_some","no_moderatelywell","asian_southAsian","male",29,"islam","",23,"BI2A00020","maybe no",-1,2640,"india"
"168","think","A2B366AAC59SAK","college_some","no_moderatelywell","asian_southAsian","male",29,"islam","",24,"BI2A00027","maybe no",-1,2896,"india"
"169","think","A2B366AAC59SAK","college_some","no_moderatelywell","asian_southAsian","male",29,"islam","",25,"BI2A00034","maybe no",-1,4369,"india"
"170","think","A2B366AAC59SAK","college_some","no_moderatelywell","asian_southAsian","male",29,"islam","",26,"BI2A00036","maybe no",-1,4111,"india"
"171","think","A2B366AAC59SAK","college_some","no_moderatelywell","asian_southAsian","male",29,"islam","",27,"BI2A00041","probably no",-2,6360,"india"
"172","think","A2B366AAC59SAK","college_some","no_moderatelywell","asian_southAsian","male",29,"islam","",28,"BI2A00031","probably no",-2,5905,"india"
"173","think","A2B366AAC59SAK","college_some","no_moderatelywell","asian_southAsian","male",29,"islam","",29,"BI2A00046","probably yes",2,5463,"india"
"174","think","A2B366AAC59SAK","college_some","no_moderatelywell","asian_southAsian","male",29,"islam","",30,"BI2A00003","probably yes",2,1536,"india"
"175","think","A2B366AAC59SAK","college_some","no_moderatelywell","asian_southAsian","male",29,"islam","",31,"BI2A00008","probably yes",2,1800,"india"
"176","think","A2B366AAC59SAK","college_some","no_moderatelywell","asian_southAsian","male",29,"islam","",32,"BI2A00045","probably yes",2,1792,"india"
"177","think","A2B366AAC59SAK","college_some","no_moderatelywell","asian_southAsian","male",29,"islam","",33,"BI2A00013","maybe yes",1,2408,"india"
"178","think","A2B366AAC59SAK","college_some","no_moderatelywell","asian_southAsian","male",29,"islam","",34,"BI2A00026","maybe no",-1,2905,"india"
"179","think","A2B366AAC59SAK","college_some","no_moderatelywell","asian_southAsian","male",29,"islam","",35,"BI2A00021","maybe yes",1,2175,"india"
"180","think","A2B366AAC59SAK","college_some","no_moderatelywell","asian_southAsian","male",29,"islam","",36,"BI2A00028","maybe yes",1,1968,"india"
"181","think","A2B366AAC59SAK","college_some","no_moderatelywell","asian_southAsian","male",29,"islam","",37,"BI2A00010","maybe no",-1,3024,"india"
"182","think","A2B366AAC59SAK","college_some","no_moderatelywell","asian_southAsian","male",29,"islam","",38,"BI2A00033","probably no",-2,2480,"india"
"183","think","A2B366AAC59SAK","college_some","no_moderatelywell","asian_southAsian","male",29,"islam","",39,"BI2A00039","maybe no",-1,5160,"india"
"184","think","A2B366AAC59SAK","college_some","no_moderatelywell","asian_southAsian","male",29,"islam","",40,"BI2A00002","probably no",-2,4048,"india"
"185","think","A2B366AAC59SAK","college_some","no_moderatelywell","asian_southAsian","male",29,"islam","",41,"BI2A00047","probably no",-2,5528,"india"
"186","think","A2B366AAC59SAK","college_some","no_moderatelywell","asian_southAsian","male",29,"islam","",42,"BI2A00024","probably no",-2,2536,"india"
"187","think","A2B366AAC59SAK","college_some","no_moderatelywell","asian_southAsian","male",29,"islam","",43,"BI2A00022","probably no",-2,3760,"india"
"188","think","A2B366AAC59SAK","college_some","no_moderatelywell","asian_southAsian","male",29,"islam","",44,"BI2A00040","probably no",-2,2567,"india"
"189","think","A2B366AAC59SAK","college_some","no_moderatelywell","asian_southAsian","male",29,"islam","",45,"BI2A00042","maybe no",-1,4800,"india"
"190","think","A2B366AAC59SAK","college_some","no_moderatelywell","asian_southAsian","male",29,"islam","",46,"BI2A00048","maybe yes",1,3297,"india"
"191","think","A2B366AAC59SAK","college_some","no_moderatelywell","asian_southAsian","male",29,"islam","",47,"BI2A00018","maybe yes",1,1560,"india"
"192","think","A2B366AAC59SAK","college_some","no_moderatelywell","asian_southAsian","male",29,"islam","",48,"BI2A00030","maybe no",-1,2936,"india"
"193","hungry","A3JIPIR860JFU5","college_bachDegree","no_fluent","asian_southAsian","female",29,"hinduism","good",1,"BI2A00038","maybe yes",1,22588,"india"
"194","hungry","A3JIPIR860JFU5","college_bachDegree","no_fluent","asian_southAsian","female",29,"hinduism","good",2,"BI2A00035","probably yes",2,56647,"india"
"195","hungry","A3JIPIR860JFU5","college_bachDegree","no_fluent","asian_southAsian","female",29,"hinduism","good",3,"BI2A00040","maybe no",-1,6253,"india"
"196","hungry","A3JIPIR860JFU5","college_bachDegree","no_fluent","asian_southAsian","female",29,"hinduism","good",4,"BI2A00008","probably no",-2,3556,"india"
"197","hungry","A3JIPIR860JFU5","college_bachDegree","no_fluent","asian_southAsian","female",29,"hinduism","good",5,"BI2A00015","maybe yes",1,3630,"india"
"198","hungry","A3JIPIR860JFU5","college_bachDegree","no_fluent","asian_southAsian","female",29,"hinduism","good",6,"BI2A00047","maybe yes",1,122,"india"
"199","hungry","A3JIPIR860JFU5","college_bachDegree","no_fluent","asian_southAsian","female",29,"hinduism","good",7,"BI2A00030","maybe yes",1,43922,"india"
"200","hungry","A3JIPIR860JFU5","college_bachDegree","no_fluent","asian_southAsian","female",29,"hinduism","good",8,"BI2A00033","probably yes",2,2194,"india"
"201","hungry","A3JIPIR860JFU5","college_bachDegree","no_fluent","asian_southAsian","female",29,"hinduism","good",9,"BI2A00032","probably yes",2,2956,"india"
"202","hungry","A3JIPIR860JFU5","college_bachDegree","no_fluent","asian_southAsian","female",29,"hinduism","good",10,"BI2A00007","maybe no",-1,2466,"india"
"203","hungry","A3JIPIR860JFU5","college_bachDegree","no_fluent","asian_southAsian","female",29,"hinduism","good",11,"BI2A00027","maybe yes",1,1818,"india"
"204","hungry","A3JIPIR860JFU5","college_bachDegree","no_fluent","asian_southAsian","female",29,"hinduism","good",12,"BI2A00002","maybe yes",1,1349,"india"
"205","hungry","A3JIPIR860JFU5","college_bachDegree","no_fluent","asian_southAsian","female",29,"hinduism","good",13,"BI2A00031","probably yes",2,1258,"india"
"206","hungry","A3JIPIR860JFU5","college_bachDegree","no_fluent","asian_southAsian","female",29,"hinduism","good",14,"BI2A00041","probably yes",2,3186,"india"
"207","hungry","A3JIPIR860JFU5","college_bachDegree","no_fluent","asian_southAsian","female",29,"hinduism","good",15,"BI2A00037","probably no",-2,3121,"india"
"208","hungry","A3JIPIR860JFU5","college_bachDegree","no_fluent","asian_southAsian","female",29,"hinduism","good",16,"BI2A00048","maybe no",-1,2127,"india"
"209","hungry","A3JIPIR860JFU5","college_bachDegree","no_fluent","asian_southAsian","female",29,"hinduism","good",17,"BI2A00016","maybe no",-1,1220,"india"
"210","hungry","A3JIPIR860JFU5","college_bachDegree","no_fluent","asian_southAsian","female",29,"hinduism","good",18,"BI2A00043","probably yes",2,2971,"india"
"211","hungry","A3JIPIR860JFU5","college_bachDegree","no_fluent","asian_southAsian","female",29,"hinduism","good",19,"BI2A00044","probably yes",2,1275,"india"
"212","hungry","A3JIPIR860JFU5","college_bachDegree","no_fluent","asian_southAsian","female",29,"hinduism","good",20,"BI2A00013","definitely no",-3,2632,"india"
"213","hungry","A3JIPIR860JFU5","college_bachDegree","no_fluent","asian_southAsian","female",29,"hinduism","good",21,"BI2A00018","definitely no",-3,2128,"india"
"214","hungry","A3JIPIR860JFU5","college_bachDegree","no_fluent","asian_southAsian","female",29,"hinduism","good",22,"BI2A00034","definitely no",-3,1131,"india"
"215","hungry","A3JIPIR860JFU5","college_bachDegree","no_fluent","asian_southAsian","female",29,"hinduism","good",23,"BI2A00003","definitely no",-3,222,"india"
"216","hungry","A3JIPIR860JFU5","college_bachDegree","no_fluent","asian_southAsian","female",29,"hinduism","good",24,"BI2A00036","definitely no",-3,1219,"india"
"217","hungry","A3JIPIR860JFU5","college_bachDegree","no_fluent","asian_southAsian","female",29,"hinduism","good",25,"BI2A00005","definitely no",-3,989,"india"
"218","hungry","A3JIPIR860JFU5","college_bachDegree","no_fluent","asian_southAsian","female",29,"hinduism","good",26,"BI2A00006","definitely no",-3,6426,"india"
"219","hungry","A3JIPIR860JFU5","college_bachDegree","no_fluent","asian_southAsian","female",29,"hinduism","good",27,"BI2A00025","definitely no",-3,1204,"india"
"220","hungry","A3JIPIR860JFU5","college_bachDegree","no_fluent","asian_southAsian","female",29,"hinduism","good",28,"BI2A00009","definitely no",-3,101,"india"
"221","hungry","A3JIPIR860JFU5","college_bachDegree","no_fluent","asian_southAsian","female",29,"hinduism","good",29,"BI2A00029","definitely no",-3,216,"india"
"222","hungry","A3JIPIR860JFU5","college_bachDegree","no_fluent","asian_southAsian","female",29,"hinduism","good",30,"BI2A00001","definitely no",-3,5041,"india"
"223","hungry","A3JIPIR860JFU5","college_bachDegree","no_fluent","asian_southAsian","female",29,"hinduism","good",31,"BI2A00042","maybe yes",1,2772,"india"
"224","hungry","A3JIPIR860JFU5","college_bachDegree","no_fluent","asian_southAsian","female",29,"hinduism","good",32,"BI2A00011","definitely no",-3,2943,"india"
"225","hungry","A3JIPIR860JFU5","college_bachDegree","no_fluent","asian_southAsian","female",29,"hinduism","good",33,"BI2A00045","probably no",-2,2058,"india"
"226","hungry","A3JIPIR860JFU5","college_bachDegree","no_fluent","asian_southAsian","female",29,"hinduism","good",34,"BI2A00023","maybe yes",1,3434,"india"
"227","hungry","A3JIPIR860JFU5","college_bachDegree","no_fluent","asian_southAsian","female",29,"hinduism","good",35,"BI2A00026","probably no",-2,3102,"india"
"228","hungry","A3JIPIR860JFU5","college_bachDegree","no_fluent","asian_southAsian","female",29,"hinduism","good",36,"BI2A00046","probably no",-2,1753,"india"
"229","hungry","A3JIPIR860JFU5","college_bachDegree","no_fluent","asian_southAsian","female",29,"hinduism","good",37,"BI2A00039","probably no",-2,2209,"india"
"230","hungry","A3JIPIR860JFU5","college_bachDegree","no_fluent","asian_southAsian","female",29,"hinduism","good",38,"BI2A00024","probably no",-2,1992,"india"
"231","hungry","A3JIPIR860JFU5","college_bachDegree","no_fluent","asian_southAsian","female",29,"hinduism","good",39,"BI2A00012","probably no",-2,4672,"india"
"232","hungry","A3JIPIR860JFU5","college_bachDegree","no_fluent","asian_southAsian","female",29,"hinduism","good",40,"BI2A00020","probably no",-2,1185,"india"
"233","hungry","A3JIPIR860JFU5","college_bachDegree","no_fluent","asian_southAsian","female",29,"hinduism","good",41,"BI2A00028","probably no",-2,1941,"india"
"234","hungry","A3JIPIR860JFU5","college_bachDegree","no_fluent","asian_southAsian","female",29,"hinduism","good",42,"BI2A00014","maybe yes",1,3308,"india"
"235","hungry","A3JIPIR860JFU5","college_bachDegree","no_fluent","asian_southAsian","female",29,"hinduism","good",43,"BI2A00019","probably no",-2,2165,"india"
"236","hungry","A3JIPIR860JFU5","college_bachDegree","no_fluent","asian_southAsian","female",29,"hinduism","good",44,"BI2A00010","probably no",-2,2174,"india"
"237","hungry","A3JIPIR860JFU5","college_bachDegree","no_fluent","asian_southAsian","female",29,"hinduism","good",45,"BI2A00021","probably no",-2,118,"india"
"238","hungry","A3JIPIR860JFU5","college_bachDegree","no_fluent","asian_southAsian","female",29,"hinduism","good",46,"BI2A00022","probably no",-2,1337,"india"
"239","hungry","A3JIPIR860JFU5","college_bachDegree","no_fluent","asian_southAsian","female",29,"hinduism","good",47,"BI2A00017","probably no",-2,1522,"india"
"240","hungry","A3JIPIR860JFU5","college_bachDegree","no_fluent","asian_southAsian","female",29,"hinduism","good",48,"BI2A00004","probably no",-2,1514,"india"
"241","pain","A3HIIRTGJUJZ1D","grad_some","no_fluent","asian_southAsian","male",40,"hinduism","Thank u",1,"BI2A00018","maybe yes",1,6420,"india"
"242","pain","A3HIIRTGJUJZ1D","grad_some","no_fluent","asian_southAsian","male",40,"hinduism","Thank u",2,"BI2A00035","probably yes",2,22137,"india"
"243","pain","A3HIIRTGJUJZ1D","grad_some","no_fluent","asian_southAsian","male",40,"hinduism","Thank u",3,"BI2A00038","maybe no",-1,6387,"india"
"244","pain","A3HIIRTGJUJZ1D","grad_some","no_fluent","asian_southAsian","male",40,"hinduism","Thank u",4,"BI2A00010","maybe no",-1,11542,"india"
"245","pain","A3HIIRTGJUJZ1D","grad_some","no_fluent","asian_southAsian","male",40,"hinduism","Thank u",5,"BI2A00009","probably no",-2,5781,"india"
"246","pain","A3HIIRTGJUJZ1D","grad_some","no_fluent","asian_southAsian","male",40,"hinduism","Thank u",6,"BI2A00008","probably no",-2,5020,"india"
"247","pain","A3HIIRTGJUJZ1D","grad_some","no_fluent","asian_southAsian","male",40,"hinduism","Thank u",7,"BI2A00029","definitely no",-3,5271,"india"
"248","pain","A3HIIRTGJUJZ1D","grad_some","no_fluent","asian_southAsian","male",40,"hinduism","Thank u",8,"BI2A00016","definitely no",-3,3750,"india"
"249","pain","A3HIIRTGJUJZ1D","grad_some","no_fluent","asian_southAsian","male",40,"hinduism","Thank u",9,"BI2A00044","definitely no",-3,5612,"india"
"250","pain","A3HIIRTGJUJZ1D","grad_some","no_fluent","asian_southAsian","male",40,"hinduism","Thank u",10,"BI2A00041","definitely no",-3,3438,"india"
"251","pain","A3HIIRTGJUJZ1D","grad_some","no_fluent","asian_southAsian","male",40,"hinduism","Thank u",11,"BI2A00006","definitely no",-3,5007,"india"
"252","pain","A3HIIRTGJUJZ1D","grad_some","no_fluent","asian_southAsian","male",40,"hinduism","Thank u",12,"BI2A00033","probably yes",2,4590,"india"
"253","pain","A3HIIRTGJUJZ1D","grad_some","no_fluent","asian_southAsian","male",40,"hinduism","Thank u",13,"BI2A00002","probably yes",2,750,"india"
"254","pain","A3HIIRTGJUJZ1D","grad_some","no_fluent","asian_southAsian","male",40,"hinduism","Thank u",14,"BI2A00027","probably yes",2,2397,"india"
"255","pain","A3HIIRTGJUJZ1D","grad_some","no_fluent","asian_southAsian","male",40,"hinduism","Thank u",15,"BI2A00012","definitely yes",3,3806,"india"
"256","pain","A3HIIRTGJUJZ1D","grad_some","no_fluent","asian_southAsian","male",40,"hinduism","Thank u",16,"BI2A00015","definitely no",-3,3207,"india"
"257","pain","A3HIIRTGJUJZ1D","grad_some","no_fluent","asian_southAsian","male",40,"hinduism","Thank u",17,"BI2A00042","definitely no",-3,2070,"india"
"258","pain","A3HIIRTGJUJZ1D","grad_some","no_fluent","asian_southAsian","male",40,"hinduism","Thank u",18,"BI2A00007","definitely no",-3,1339,"india"
"259","pain","A3HIIRTGJUJZ1D","grad_some","no_fluent","asian_southAsian","male",40,"hinduism","Thank u",19,"BI2A00037","maybe yes",1,2822,"india"
"260","pain","A3HIIRTGJUJZ1D","grad_some","no_fluent","asian_southAsian","male",40,"hinduism","Thank u",20,"BI2A00039","definitely yes",3,2325,"india"
"261","pain","A3HIIRTGJUJZ1D","grad_some","no_fluent","asian_southAsian","male",40,"hinduism","Thank u",21,"BI2A00001","definitely yes",3,2022,"india"
"262","pain","A3HIIRTGJUJZ1D","grad_some","no_fluent","asian_southAsian","male",40,"hinduism","Thank u",22,"BI2A00024","definitely yes",3,1279,"india"
"263","pain","A3HIIRTGJUJZ1D","grad_some","no_fluent","asian_southAsian","male",40,"hinduism","Thank u",23,"BI2A00011","probably no",-2,3330,"india"
"264","pain","A3HIIRTGJUJZ1D","grad_some","no_fluent","asian_southAsian","male",40,"hinduism","Thank u",24,"BI2A00046","definitely no",-3,2560,"india"
"265","pain","A3HIIRTGJUJZ1D","grad_some","no_fluent","asian_southAsian","male",40,"hinduism","Thank u",25,"BI2A00021","maybe yes",1,2415,"india"
"266","pain","A3HIIRTGJUJZ1D","grad_some","no_fluent","asian_southAsian","male",40,"hinduism","Thank u",26,"BI2A00004","probably no",-2,1594,"india"
"267","pain","A3HIIRTGJUJZ1D","grad_some","no_fluent","asian_southAsian","male",40,"hinduism","Thank u",27,"BI2A00045","probably no",-2,1613,"india"
"268","pain","A3HIIRTGJUJZ1D","grad_some","no_fluent","asian_southAsian","male",40,"hinduism","Thank u",28,"BI2A00031","probably yes",2,1988,"india"
"269","pain","A3HIIRTGJUJZ1D","grad_some","no_fluent","asian_southAsian","male",40,"hinduism","Thank u",29,"BI2A00043","probably no",-2,1766,"india"
"270","pain","A3HIIRTGJUJZ1D","grad_some","no_fluent","asian_southAsian","male",40,"hinduism","Thank u",30,"BI2A00017","probably yes",2,1542,"india"
"271","pain","A3HIIRTGJUJZ1D","grad_some","no_fluent","asian_southAsian","male",40,"hinduism","Thank u",31,"BI2A00020","probably yes",2,1182,"india"
"272","pain","A3HIIRTGJUJZ1D","grad_some","no_fluent","asian_southAsian","male",40,"hinduism","Thank u",32,"BI2A00034","probably yes",2,1086,"india"
"273","pain","A3HIIRTGJUJZ1D","grad_some","no_fluent","asian_southAsian","male",40,"hinduism","Thank u",33,"BI2A00036","maybe yes",1,2429,"india"
"274","pain","A3HIIRTGJUJZ1D","grad_some","no_fluent","asian_southAsian","male",40,"hinduism","Thank u",34,"BI2A00019","probably yes",2,1559,"india"
"275","pain","A3HIIRTGJUJZ1D","grad_some","no_fluent","asian_southAsian","male",40,"hinduism","Thank u",35,"BI2A00022","probably yes",2,1455,"india"
"276","pain","A3HIIRTGJUJZ1D","grad_some","no_fluent","asian_southAsian","male",40,"hinduism","Thank u",36,"BI2A00032","probably yes",2,3164,"india"
"277","pain","A3HIIRTGJUJZ1D","grad_some","no_fluent","asian_southAsian","male",40,"hinduism","Thank u",37,"BI2A00013","definitely no",-3,1318,"india"
"278","pain","A3HIIRTGJUJZ1D","grad_some","no_fluent","asian_southAsian","male",40,"hinduism","Thank u",38,"BI2A00014","maybe yes",1,1534,"india"
"279","pain","A3HIIRTGJUJZ1D","grad_some","no_fluent","asian_southAsian","male",40,"hinduism","Thank u",39,"BI2A00028","probably yes",2,1973,"india"
"280","pain","A3HIIRTGJUJZ1D","grad_some","no_fluent","asian_southAsian","male",40,"hinduism","Thank u",40,"BI2A00003","maybe yes",1,3567,"india"
"281","pain","A3HIIRTGJUJZ1D","grad_some","no_fluent","asian_southAsian","male",40,"hinduism","Thank u",41,"BI2A00047","maybe yes",1,5366,"india"
"282","pain","A3HIIRTGJUJZ1D","grad_some","no_fluent","asian_southAsian","male",40,"hinduism","Thank u",42,"BI2A00030","maybe no",-1,1783,"india"
"283","pain","A3HIIRTGJUJZ1D","grad_some","no_fluent","asian_southAsian","male",40,"hinduism","Thank u",43,"BI2A00040","probably yes",2,1645,"india"
"284","pain","A3HIIRTGJUJZ1D","grad_some","no_fluent","asian_southAsian","male",40,"hinduism","Thank u",44,"BI2A00048","probably yes",2,2925,"india"
"285","pain","A3HIIRTGJUJZ1D","grad_some","no_fluent","asian_southAsian","male",40,"hinduism","Thank u",45,"BI2A00026","probably yes",2,1597,"india"
"286","pain","A3HIIRTGJUJZ1D","grad_some","no_fluent","asian_southAsian","male",40,"hinduism","Thank u",46,"BI2A00023","probably yes",2,1134,"india"
"287","pain","A3HIIRTGJUJZ1D","grad_some","no_fluent","asian_southAsian","male",40,"hinduism","Thank u",47,"BI2A00025","maybe no",-1,1350,"india"
"288","pain","A3HIIRTGJUJZ1D","grad_some","no_fluent","asian_southAsian","male",40,"hinduism","Thank u",48,"BI2A00005","maybe yes",1,1485,"india"
"289","happy","A1CNEUGI7LWLR7","college_bachDegree","no","asian_southAsian","male",26,"hinduism","no",1,"BI2A00033","probably no",-2,9899,"india"
"290","happy","A1CNEUGI7LWLR7","college_bachDegree","no","asian_southAsian","male",26,"hinduism","no",2,"BI2A00041","probably no",-2,2179,"india"
"291","happy","A1CNEUGI7LWLR7","college_bachDegree","no","asian_southAsian","male",26,"hinduism","no",3,"BI2A00015","definitely no",-3,1428,"india"
"292","happy","A1CNEUGI7LWLR7","college_bachDegree","no","asian_southAsian","male",26,"hinduism","no",4,"BI2A00008","definitely no",-3,1392,"india"
"293","happy","A1CNEUGI7LWLR7","college_bachDegree","no","asian_southAsian","male",26,"hinduism","no",5,"BI2A00016","equally yes/no",0,2480,"india"
"294","happy","A1CNEUGI7LWLR7","college_bachDegree","no","asian_southAsian","male",26,"hinduism","no",6,"BI2A00031","maybe yes",1,1666,"india"
"295","happy","A1CNEUGI7LWLR7","college_bachDegree","no","asian_southAsian","male",26,"hinduism","no",7,"BI2A00003","probably no",-2,1743,"india"
"296","happy","A1CNEUGI7LWLR7","college_bachDegree","no","asian_southAsian","male",26,"hinduism","no",8,"BI2A00005","definitely no",-3,1074,"india"
"297","happy","A1CNEUGI7LWLR7","college_bachDegree","no","asian_southAsian","male",26,"hinduism","no",9,"BI2A00038","equally yes/no",0,2209,"india"
"298","happy","A1CNEUGI7LWLR7","college_bachDegree","no","asian_southAsian","male",26,"hinduism","no",10,"BI2A00046","probably yes",2,2561,"india"
"299","happy","A1CNEUGI7LWLR7","college_bachDegree","no","asian_southAsian","male",26,"hinduism","no",11,"BI2A00001","probably no",-2,1479,"india"
"300","happy","A1CNEUGI7LWLR7","college_bachDegree","no","asian_southAsian","male",26,"hinduism","no",12,"BI2A00011","maybe yes",1,1962,"india"
"301","happy","A1CNEUGI7LWLR7","college_bachDegree","no","asian_southAsian","male",26,"hinduism","no",13,"BI2A00044","maybe yes",1,1484,"india"
"302","happy","A1CNEUGI7LWLR7","college_bachDegree","no","asian_southAsian","male",26,"hinduism","no",14,"BI2A00032","equally yes/no",0,1784,"india"
"303","happy","A1CNEUGI7LWLR7","college_bachDegree","no","asian_southAsian","male",26,"hinduism","no",15,"BI2A00030","probably yes",2,1569,"india"
"304","happy","A1CNEUGI7LWLR7","college_bachDegree","no","asian_southAsian","male",26,"hinduism","no",16,"BI2A00043","definitely yes",3,1238,"india"
"305","happy","A1CNEUGI7LWLR7","college_bachDegree","no","asian_southAsian","male",26,"hinduism","no",17,"BI2A00047","probably yes",2,2201,"india"
"306","happy","A1CNEUGI7LWLR7","college_bachDegree","no","asian_southAsian","male",26,"hinduism","no",18,"BI2A00020","probably no",-2,1577,"india"
"307","happy","A1CNEUGI7LWLR7","college_bachDegree","no","asian_southAsian","male",26,"hinduism","no",19,"BI2A00024","equally yes/no",0,2801,"india"
"308","happy","A1CNEUGI7LWLR7","college_bachDegree","no","asian_southAsian","male",26,"hinduism","no",20,"BI2A00035","maybe yes",1,1227,"india"
"309","happy","A1CNEUGI7LWLR7","college_bachDegree","no","asian_southAsian","male",26,"hinduism","no",21,"BI2A00007","maybe yes",1,1228,"india"
"310","happy","A1CNEUGI7LWLR7","college_bachDegree","no","asian_southAsian","male",26,"hinduism","no",22,"BI2A00037","maybe no",-1,1402,"india"
"311","happy","A1CNEUGI7LWLR7","college_bachDegree","no","asian_southAsian","male",26,"hinduism","no",23,"BI2A00036","probably no",-2,1410,"india"
"312","happy","A1CNEUGI7LWLR7","college_bachDegree","no","asian_southAsian","male",26,"hinduism","no",24,"BI2A00019","probably no",-2,1088,"india"
"313","happy","A1CNEUGI7LWLR7","college_bachDegree","no","asian_southAsian","male",26,"hinduism","no",25,"BI2A00029","probably no",-2,1469,"india"
"314","happy","A1CNEUGI7LWLR7","college_bachDegree","no","asian_southAsian","male",26,"hinduism","no",26,"BI2A00028","equally yes/no",0,1994,"india"
"315","happy","A1CNEUGI7LWLR7","college_bachDegree","no","asian_southAsian","male",26,"hinduism","no",27,"BI2A00027","maybe yes",1,1530,"india"
"316","happy","A1CNEUGI7LWLR7","college_bachDegree","no","asian_southAsian","male",26,"hinduism","no",28,"BI2A00039","probably yes",2,1443,"india"
"317","happy","A1CNEUGI7LWLR7","college_bachDegree","no","asian_southAsian","male",26,"hinduism","no",29,"BI2A00042","probably yes",2,1720,"india"
"318","happy","A1CNEUGI7LWLR7","college_bachDegree","no","asian_southAsian","male",26,"hinduism","no",30,"BI2A00048","probably yes",2,1403,"india"
"319","happy","A1CNEUGI7LWLR7","college_bachDegree","no","asian_southAsian","male",26,"hinduism","no",31,"BI2A00002","definitely no",-3,2108,"india"
"320","happy","A1CNEUGI7LWLR7","college_bachDegree","no","asian_southAsian","male",26,"hinduism","no",32,"BI2A00025","definitely no",-3,1398,"india"
"321","happy","A1CNEUGI7LWLR7","college_bachDegree","no","asian_southAsian","male",26,"hinduism","no",33,"BI2A00009","probably yes",2,1760,"india"
"322","happy","A1CNEUGI7LWLR7","college_bachDegree","no","asian_southAsian","male",26,"hinduism","no",34,"BI2A00012","probably no",-2,1857,"india"
"323","happy","A1CNEUGI7LWLR7","college_bachDegree","no","asian_southAsian","male",26,"hinduism","no",35,"BI2A00026","definitely no",-3,1545,"india"
"324","happy","A1CNEUGI7LWLR7","college_bachDegree","no","asian_southAsian","male",26,"hinduism","no",36,"BI2A00022","equally yes/no",0,1696,"india"
"325","happy","A1CNEUGI7LWLR7","college_bachDegree","no","asian_southAsian","male",26,"hinduism","no",37,"BI2A00017","equally yes/no",0,1121,"india"
"326","happy","A1CNEUGI7LWLR7","college_bachDegree","no","asian_southAsian","male",26,"hinduism","no",38,"BI2A00006","probably yes",2,2577,"india"
"327","happy","A1CNEUGI7LWLR7","college_bachDegree","no","asian_southAsian","male",26,"hinduism","no",39,"BI2A00013","maybe no",-1,2736,"india"
"328","happy","A1CNEUGI7LWLR7","college_bachDegree","no","asian_southAsian","male",26,"hinduism","no",40,"BI2A00004","probably no",-2,1570,"india"
"329","happy","A1CNEUGI7LWLR7","college_bachDegree","no","asian_southAsian","male",26,"hinduism","no",41,"BI2A00040","maybe yes",1,1992,"india"
"330","happy","A1CNEUGI7LWLR7","college_bachDegree","no","asian_southAsian","male",26,"hinduism","no",42,"BI2A00021","maybe yes",1,1641,"india"
"331","happy","A1CNEUGI7LWLR7","college_bachDegree","no","asian_southAsian","male",26,"hinduism","no",43,"BI2A00010","maybe no",-1,1700,"india"
"332","happy","A1CNEUGI7LWLR7","college_bachDegree","no","asian_southAsian","male",26,"hinduism","no",44,"BI2A00045","probably yes",2,1390,"india"
"333","happy","A1CNEUGI7LWLR7","college_bachDegree","no","asian_southAsian","male",26,"hinduism","no",45,"BI2A00034","equally yes/no",0,2490,"india"
"334","happy","A1CNEUGI7LWLR7","college_bachDegree","no","asian_southAsian","male",26,"hinduism","no",46,"BI2A00018","equally yes/no",0,1450,"india"
"335","happy","A1CNEUGI7LWLR7","college_bachDegree","no","asian_southAsian","male",26,"hinduism","no",47,"BI2A00023","probably no",-2,1646,"india"
"336","happy","A1CNEUGI7LWLR7","college_bachDegree","no","asian_southAsian","male",26,"hinduism","no",48,"BI2A00014","maybe no",-1,1593,"india"
"337","feelings","A3ND4KJK19EZ42","college_bachDegree","yes_multiple","asian_southAsian","male",44,"hinduism","Nice survey.",1,"BI2A00011","definitely yes",3,29734,"india"
"338","feelings","A3ND4KJK19EZ42","college_bachDegree","yes_multiple","asian_southAsian","male",44,"hinduism","Nice survey.",2,"BI2A00009","definitely yes",3,23620,"india"
"339","feelings","A3ND4KJK19EZ42","college_bachDegree","yes_multiple","asian_southAsian","male",44,"hinduism","Nice survey.",3,"BI2A00027","probably no",-2,5541,"india"
"340","feelings","A3ND4KJK19EZ42","college_bachDegree","yes_multiple","asian_southAsian","male",44,"hinduism","Nice survey.",4,"BI2A00038","maybe no",-1,2422,"india"
"341","feelings","A3ND4KJK19EZ42","college_bachDegree","yes_multiple","asian_southAsian","male",44,"hinduism","Nice survey.",5,"BI2A00030","maybe no",-1,3357,"india"
"342","feelings","A3ND4KJK19EZ42","college_bachDegree","yes_multiple","asian_southAsian","male",44,"hinduism","Nice survey.",6,"BI2A00016","maybe no",-1,7174,"india"
"343","feelings","A3ND4KJK19EZ42","college_bachDegree","yes_multiple","asian_southAsian","male",44,"hinduism","Nice survey.",7,"BI2A00044","maybe no",-1,6232,"india"
"344","feelings","A3ND4KJK19EZ42","college_bachDegree","yes_multiple","asian_southAsian","male",44,"hinduism","Nice survey.",8,"BI2A00010","definitely yes",3,35444,"india"
"345","feelings","A3ND4KJK19EZ42","college_bachDegree","yes_multiple","asian_southAsian","male",44,"hinduism","Nice survey.",9,"BI2A00036","maybe yes",1,3630,"india"
"346","feelings","A3ND4KJK19EZ42","college_bachDegree","yes_multiple","asian_southAsian","male",44,"hinduism","Nice survey.",10,"BI2A00041","maybe no",-1,5022,"india"
"347","feelings","A3ND4KJK19EZ42","college_bachDegree","yes_multiple","asian_southAsian","male",44,"hinduism","Nice survey.",11,"BI2A00003","definitely yes",3,4678,"india"
"348","feelings","A3ND4KJK19EZ42","college_bachDegree","yes_multiple","asian_southAsian","male",44,"hinduism","Nice survey.",12,"BI2A00031","maybe no",-1,4390,"india"
"349","feelings","A3ND4KJK19EZ42","college_bachDegree","yes_multiple","asian_southAsian","male",44,"hinduism","Nice survey.",13,"BI2A00002","definitely yes",3,5414,"india"
"350","feelings","A3ND4KJK19EZ42","college_bachDegree","yes_multiple","asian_southAsian","male",44,"hinduism","Nice survey.",14,"BI2A00047","probably no",-2,17196,"india"
"351","feelings","A3ND4KJK19EZ42","college_bachDegree","yes_multiple","asian_southAsian","male",44,"hinduism","Nice survey.",15,"BI2A00032","definitely no",-3,2534,"india"
"352","feelings","A3ND4KJK19EZ42","college_bachDegree","yes_multiple","asian_southAsian","male",44,"hinduism","Nice survey.",16,"BI2A00028","maybe yes",1,3131,"india"
"353","feelings","A3ND4KJK19EZ42","college_bachDegree","yes_multiple","asian_southAsian","male",44,"hinduism","Nice survey.",17,"BI2A00039","maybe no",-1,1894,"india"
"354","feelings","A3ND4KJK19EZ42","college_bachDegree","yes_multiple","asian_southAsian","male",44,"hinduism","Nice survey.",18,"BI2A00025","maybe no",-1,1875,"india"
"355","feelings","A3ND4KJK19EZ42","college_bachDegree","yes_multiple","asian_southAsian","male",44,"hinduism","Nice survey.",19,"BI2A00006","definitely yes",3,2964,"india"
"356","feelings","A3ND4KJK19EZ42","college_bachDegree","yes_multiple","asian_southAsian","male",44,"hinduism","Nice survey.",20,"BI2A00007","definitely yes",3,1408,"india"
"357","feelings","A3ND4KJK19EZ42","college_bachDegree","yes_multiple","asian_southAsian","male",44,"hinduism","Nice survey.",21,"BI2A00024","definitely yes",3,1357,"india"
"358","feelings","A3ND4KJK19EZ42","college_bachDegree","yes_multiple","asian_southAsian","male",44,"hinduism","Nice survey.",22,"BI2A00014","equally yes/no",0,2330,"india"
"359","feelings","A3ND4KJK19EZ42","college_bachDegree","yes_multiple","asian_southAsian","male",44,"hinduism","Nice survey.",23,"BI2A00012","probably yes",2,2018,"india"
"360","feelings","A3ND4KJK19EZ42","college_bachDegree","yes_multiple","asian_southAsian","male",44,"hinduism","Nice survey.",24,"BI2A00029","maybe no",-1,1732,"india"
"361","feelings","A3ND4KJK19EZ42","college_bachDegree","yes_multiple","asian_southAsian","male",44,"hinduism","Nice survey.",25,"BI2A00017","probably no",-2,2508,"india"
"362","feelings","A3ND4KJK19EZ42","college_bachDegree","yes_multiple","asian_southAsian","male",44,"hinduism","Nice survey.",26,"BI2A00035","maybe no",-1,2384,"india"
"363","feelings","A3ND4KJK19EZ42","college_bachDegree","yes_multiple","asian_southAsian","male",44,"hinduism","Nice survey.",27,"BI2A00015","probably yes",2,2229,"india"
"364","feelings","A3ND4KJK19EZ42","college_bachDegree","yes_multiple","asian_southAsian","male",44,"hinduism","Nice survey.",28,"BI2A00026","probably yes",2,2500,"india"
"365","feelings","A3ND4KJK19EZ42","college_bachDegree","yes_multiple","asian_southAsian","male",44,"hinduism","Nice survey.",29,"BI2A00005","definitely yes",3,1541,"india"
"366","feelings","A3ND4KJK19EZ42","college_bachDegree","yes_multiple","asian_southAsian","male",44,"hinduism","Nice survey.",30,"BI2A00004","definitely yes",3,1159,"india"
"367","feelings","A3ND4KJK19EZ42","college_bachDegree","yes_multiple","asian_southAsian","male",44,"hinduism","Nice survey.",31,"BI2A00023","maybe no",-1,2177,"india"
"368","feelings","A3ND4KJK19EZ42","college_bachDegree","yes_multiple","asian_southAsian","male",44,"hinduism","Nice survey.",32,"BI2A00022","probably no",-2,2206,"india"
"369","feelings","A3ND4KJK19EZ42","college_bachDegree","yes_multiple","asian_southAsian","male",44,"hinduism","Nice survey.",33,"BI2A00034","probably no",-2,12866,"india"
"370","feelings","A3ND4KJK19EZ42","college_bachDegree","yes_multiple","asian_southAsian","male",44,"hinduism","Nice survey.",34,"BI2A00048","maybe no",-1,2396,"india"
"371","feelings","A3ND4KJK19EZ42","college_bachDegree","yes_multiple","asian_southAsian","male",44,"hinduism","Nice survey.",35,"BI2A00037","equally yes/no",0,4130,"india"
"372","feelings","A3ND4KJK19EZ42","college_bachDegree","yes_multiple","asian_southAsian","male",44,"hinduism","Nice survey.",36,"BI2A00042","maybe yes",1,3051,"india"
"373","feelings","A3ND4KJK19EZ42","college_bachDegree","yes_multiple","asian_southAsian","male",44,"hinduism","Nice survey.",37,"BI2A00008","definitely yes",3,2832,"india"
"374","feelings","A3ND4KJK19EZ42","college_bachDegree","yes_multiple","asian_southAsian","male",44,"hinduism","Nice survey.",38,"BI2A00046","probably no",-2,1866,"india"
"375","feelings","A3ND4KJK19EZ42","college_bachDegree","yes_multiple","asian_southAsian","male",44,"hinduism","Nice survey.",39,"BI2A00045","probably no",-2,906,"india"
"376","feelings","A3ND4KJK19EZ42","college_bachDegree","yes_multiple","asian_southAsian","male",44,"hinduism","Nice survey.",40,"BI2A00043","maybe no",-1,2073,"india"
"377","feelings","A3ND4KJK19EZ42","college_bachDegree","yes_multiple","asian_southAsian","male",44,"hinduism","Nice survey.",41,"BI2A00040","probably no",-2,1722,"india"
"378","feelings","A3ND4KJK19EZ42","college_bachDegree","yes_multiple","asian_southAsian","male",44,"hinduism","Nice survey.",42,"BI2A00001","probably yes",2,1848,"india"
"379","feelings","A3ND4KJK19EZ42","college_bachDegree","yes_multiple","asian_southAsian","male",44,"hinduism","Nice survey.",43,"BI2A00033","maybe no",-1,1947,"india"
"380","feelings","A3ND4KJK19EZ42","college_bachDegree","yes_multiple","asian_southAsian","male",44,"hinduism","Nice survey.",44,"BI2A00013","probably yes",2,1669,"india"
"381","feelings","A3ND4KJK19EZ42","college_bachDegree","yes_multiple","asian_southAsian","male",44,"hinduism","Nice survey.",45,"BI2A00018","definitely no",-3,4760,"india"
"382","feelings","A3ND4KJK19EZ42","college_bachDegree","yes_multiple","asian_southAsian","male",44,"hinduism","Nice survey.",46,"BI2A00021","probably no",-2,1452,"india"
"383","feelings","A3ND4KJK19EZ42","college_bachDegree","yes_multiple","asian_southAsian","male",44,"hinduism","Nice survey.",47,"BI2A00020","probably yes",2,2249,"india"
"384","feelings","A3ND4KJK19EZ42","college_bachDegree","yes_multiple","asian_southAsian","male",44,"hinduism","Nice survey.",48,"BI2A00019","definitely yes",3,2500,"india"
"385","hungry","ALT88JWMD3JVJ","grad_degree","yes_only","asian_southAsian","male",30,"hinduism","Very Interesting Study.",1,"BI2A00027","probably yes",2,8795,"india"
"386","hungry","ALT88JWMD3JVJ","grad_degree","yes_only","asian_southAsian","male",30,"hinduism","Very Interesting Study.",2,"BI2A00028","definitely yes",3,5704,"india"
"387","hungry","ALT88JWMD3JVJ","grad_degree","yes_only","asian_southAsian","male",30,"hinduism","Very Interesting Study.",3,"BI2A00007","probably no",-2,2449,"india"
"388","hungry","ALT88JWMD3JVJ","grad_degree","yes_only","asian_southAsian","male",30,"hinduism","Very Interesting Study.",4,"BI2A00019","probably yes",2,1301,"india"
"389","hungry","ALT88JWMD3JVJ","grad_degree","yes_only","asian_southAsian","male",30,"hinduism","Very Interesting Study.",5,"BI2A00022","definitely yes",3,1151,"india"
"390","hungry","ALT88JWMD3JVJ","grad_degree","yes_only","asian_southAsian","male",30,"hinduism","Very Interesting Study.",6,"BI2A00016","maybe yes",1,3486,"india"
"391","hungry","ALT88JWMD3JVJ","grad_degree","yes_only","asian_southAsian","male",30,"hinduism","Very Interesting Study.",7,"BI2A00033","maybe no",-1,1967,"india"
"392","hungry","ALT88JWMD3JVJ","grad_degree","yes_only","asian_southAsian","male",30,"hinduism","Very Interesting Study.",8,"BI2A00043","definitely yes",3,1838,"india"
"393","hungry","ALT88JWMD3JVJ","grad_degree","yes_only","asian_southAsian","male",30,"hinduism","Very Interesting Study.",9,"BI2A00029","probably yes",2,4235,"india"
"394","hungry","ALT88JWMD3JVJ","grad_degree","yes_only","asian_southAsian","male",30,"hinduism","Very Interesting Study.",10,"BI2A00014","definitely yes",3,2197,"india"
"395","hungry","ALT88JWMD3JVJ","grad_degree","yes_only","asian_southAsian","male",30,"hinduism","Very Interesting Study.",11,"BI2A00026","definitely no",-3,1671,"india"
"396","hungry","ALT88JWMD3JVJ","grad_degree","yes_only","asian_southAsian","male",30,"hinduism","Very Interesting Study.",12,"BI2A00009","equally yes/no",0,1834,"india"
"397","hungry","ALT88JWMD3JVJ","grad_degree","yes_only","asian_southAsian","male",30,"hinduism","Very Interesting Study.",13,"BI2A00040","probably yes",2,1631,"india"
"398","hungry","ALT88JWMD3JVJ","grad_degree","yes_only","asian_southAsian","male",30,"hinduism","Very Interesting Study.",14,"BI2A00032","definitely yes",3,2432,"india"
"399","hungry","ALT88JWMD3JVJ","grad_degree","yes_only","asian_southAsian","male",30,"hinduism","Very Interesting Study.",15,"BI2A00047","probably yes",2,2852,"india"
"400","hungry","ALT88JWMD3JVJ","grad_degree","yes_only","asian_southAsian","male",30,"hinduism","Very Interesting Study.",16,"BI2A00023","maybe yes",1,2768,"india"
"401","hungry","ALT88JWMD3JVJ","grad_degree","yes_only","asian_southAsian","male",30,"hinduism","Very Interesting Study.",17,"BI2A00024","definitely no",-3,1734,"india"
"402","hungry","ALT88JWMD3JVJ","grad_degree","yes_only","asian_southAsian","male",30,"hinduism","Very Interesting Study.",18,"BI2A00017","probably yes",2,1337,"india"
"403","hungry","ALT88JWMD3JVJ","grad_degree","yes_only","asian_southAsian","male",30,"hinduism","Very Interesting Study.",19,"BI2A00021","maybe no",-1,1632,"india"
"404","hungry","ALT88JWMD3JVJ","grad_degree","yes_only","asian_southAsian","male",30,"hinduism","Very Interesting Study.",20,"BI2A00010","definitely yes",3,5931,"india"
"405","hungry","ALT88JWMD3JVJ","grad_degree","yes_only","asian_southAsian","male",30,"hinduism","Very Interesting Study.",21,"BI2A00013","maybe no",-1,2384,"india"
"406","hungry","ALT88JWMD3JVJ","grad_degree","yes_only","asian_southAsian","male",30,"hinduism","Very Interesting Study.",22,"BI2A00005","definitely yes",3,1334,"india"
"407","hungry","ALT88JWMD3JVJ","grad_degree","yes_only","asian_southAsian","male",30,"hinduism","Very Interesting Study.",23,"BI2A00015","probably yes",2,1351,"india"
"408","hungry","ALT88JWMD3JVJ","grad_degree","yes_only","asian_southAsian","male",30,"hinduism","Very Interesting Study.",24,"BI2A00045","probably no",-2,2330,"india"
"409","hungry","ALT88JWMD3JVJ","grad_degree","yes_only","asian_southAsian","male",30,"hinduism","Very Interesting Study.",25,"BI2A00037","probably yes",2,1187,"india"
"410","hungry","ALT88JWMD3JVJ","grad_degree","yes_only","asian_southAsian","male",30,"hinduism","Very Interesting Study.",26,"BI2A00030","definitely yes",3,1481,"india"
"411","hungry","ALT88JWMD3JVJ","grad_degree","yes_only","asian_southAsian","male",30,"hinduism","Very Interesting Study.",27,"BI2A00036","equally yes/no",0,1483,"india"
"412","hungry","ALT88JWMD3JVJ","grad_degree","yes_only","asian_southAsian","male",30,"hinduism","Very Interesting Study.",28,"BI2A00025","probably yes",2,1649,"india"
"413","hungry","ALT88JWMD3JVJ","grad_degree","yes_only","asian_southAsian","male",30,"hinduism","Very Interesting Study.",29,"BI2A00034","probably no",-2,2452,"india"
"414","hungry","ALT88JWMD3JVJ","grad_degree","yes_only","asian_southAsian","male",30,"hinduism","Very Interesting Study.",30,"BI2A00018","maybe no",-1,1732,"india"
"415","hungry","ALT88JWMD3JVJ","grad_degree","yes_only","asian_southAsian","male",30,"hinduism","Very Interesting Study.",31,"BI2A00006","probably yes",2,1236,"india"
"416","hungry","ALT88JWMD3JVJ","grad_degree","yes_only","asian_southAsian","male",30,"hinduism","Very Interesting Study.",32,"BI2A00012","definitely yes",3,1280,"india"
"417","hungry","ALT88JWMD3JVJ","grad_degree","yes_only","asian_southAsian","male",30,"hinduism","Very Interesting Study.",33,"BI2A00041","maybe yes",1,3533,"india"
"418","hungry","ALT88JWMD3JVJ","grad_degree","yes_only","asian_southAsian","male",30,"hinduism","Very Interesting Study.",34,"BI2A00035","definitely yes",3,3534,"india"
"419","hungry","ALT88JWMD3JVJ","grad_degree","yes_only","asian_southAsian","male",30,"hinduism","Very Interesting Study.",35,"BI2A00008","equally yes/no",0,1651,"india"
"420","hungry","ALT88JWMD3JVJ","grad_degree","yes_only","asian_southAsian","male",30,"hinduism","Very Interesting Study.",36,"BI2A00044","probably yes",2,2607,"india"
"421","hungry","ALT88JWMD3JVJ","grad_degree","yes_only","asian_southAsian","male",30,"hinduism","Very Interesting Study.",37,"BI2A00046","probably no",-2,2404,"india"
"422","hungry","ALT88JWMD3JVJ","grad_degree","yes_only","asian_southAsian","male",30,"hinduism","Very Interesting Study.",38,"BI2A00038","definitely yes",3,2246,"india"
"423","hungry","ALT88JWMD3JVJ","grad_degree","yes_only","asian_southAsian","male",30,"hinduism","Very Interesting Study.",39,"BI2A00039","maybe yes",1,2115,"india"
"424","hungry","ALT88JWMD3JVJ","grad_degree","yes_only","asian_southAsian","male",30,"hinduism","Very Interesting Study.",40,"BI2A00003","definitely yes",3,1771,"india"
"425","hungry","ALT88JWMD3JVJ","grad_degree","yes_only","asian_southAsian","male",30,"hinduism","Very Interesting Study.",41,"BI2A00011","definitely yes",3,2616,"india"
"426","hungry","ALT88JWMD3JVJ","grad_degree","yes_only","asian_southAsian","male",30,"hinduism","Very Interesting Study.",42,"BI2A00031","maybe no",-1,1718,"india"
"427","hungry","ALT88JWMD3JVJ","grad_degree","yes_only","asian_southAsian","male",30,"hinduism","Very Interesting Study.",43,"BI2A00002","definitely yes",3,1282,"india"
"428","hungry","ALT88JWMD3JVJ","grad_degree","yes_only","asian_southAsian","male",30,"hinduism","Very Interesting Study.",44,"BI2A00001","probably no",-2,1668,"india"
"429","hungry","ALT88JWMD3JVJ","grad_degree","yes_only","asian_southAsian","male",30,"hinduism","Very Interesting Study.",45,"BI2A00020","definitely no",-3,1600,"india"
"430","hungry","ALT88JWMD3JVJ","grad_degree","yes_only","asian_southAsian","male",30,"hinduism","Very Interesting Study.",46,"BI2A00048","probably yes",2,1315,"india"
"431","hungry","ALT88JWMD3JVJ","grad_degree","yes_only","asian_southAsian","male",30,"hinduism","Very Interesting Study.",47,"BI2A00042","probably yes",2,112106,"india"
"432","hungry","ALT88JWMD3JVJ","grad_degree","yes_only","asian_southAsian","male",30,"hinduism","Very Interesting Study.",48,"BI2A00004","definitely yes",3,1285,"india"
"433","happy","A4H1NYJVE7C53","college_bachDegree","no_fluent","asian_southAsian","male",29,"hinduism","",1,"BI2A00006","maybe yes",1,9752,"india"
"434","happy","A4H1NYJVE7C53","college_bachDegree","no_fluent","asian_southAsian","male",29,"hinduism","",2,"BI2A00013","maybe yes",1,1897,"india"
"435","happy","A4H1NYJVE7C53","college_bachDegree","no_fluent","asian_southAsian","male",29,"hinduism","",3,"BI2A00001","maybe yes",1,1944,"india"
"436","happy","A4H1NYJVE7C53","college_bachDegree","no_fluent","asian_southAsian","male",29,"hinduism","",4,"BI2A00022","probably no",-2,1682,"india"
"437","happy","A4H1NYJVE7C53","college_bachDegree","no_fluent","asian_southAsian","male",29,"hinduism","",5,"BI2A00030","definitely no",-3,2014,"india"
"438","happy","A4H1NYJVE7C53","college_bachDegree","no_fluent","asian_southAsian","male",29,"hinduism","",6,"BI2A00009","maybe yes",1,1962,"india"
"439","happy","A4H1NYJVE7C53","college_bachDegree","no_fluent","asian_southAsian","male",29,"hinduism","",7,"BI2A00024","maybe yes",1,2481,"india"
"440","happy","A4H1NYJVE7C53","college_bachDegree","no_fluent","asian_southAsian","male",29,"hinduism","",8,"BI2A00004","maybe yes",1,1771,"india"
"441","happy","A4H1NYJVE7C53","college_bachDegree","no_fluent","asian_southAsian","male",29,"hinduism","",9,"BI2A00038","definitely no",-3,1810,"india"
"442","happy","A4H1NYJVE7C53","college_bachDegree","no_fluent","asian_southAsian","male",29,"hinduism","",10,"BI2A00026","maybe yes",1,2833,"india"
"443","happy","A4H1NYJVE7C53","college_bachDegree","no_fluent","asian_southAsian","male",29,"hinduism","",11,"BI2A00044","definitely no",-3,1199,"india"
"444","happy","A4H1NYJVE7C53","college_bachDegree","no_fluent","asian_southAsian","male",29,"hinduism","",12,"BI2A00005","equally yes/no",0,3081,"india"
"445","happy","A4H1NYJVE7C53","college_bachDegree","no_fluent","asian_southAsian","male",29,"hinduism","",13,"BI2A00002","probably yes",2,2195,"india"
"446","happy","A4H1NYJVE7C53","college_bachDegree","no_fluent","asian_southAsian","male",29,"hinduism","",14,"BI2A00035","definitely no",-3,1209,"india"
"447","happy","A4H1NYJVE7C53","college_bachDegree","no_fluent","asian_southAsian","male",29,"hinduism","",15,"BI2A00046","definitely no",-3,738,"india"
"448","happy","A4H1NYJVE7C53","college_bachDegree","no_fluent","asian_southAsian","male",29,"hinduism","",16,"BI2A00045","definitely no",-3,767,"india"
"449","happy","A4H1NYJVE7C53","college_bachDegree","no_fluent","asian_southAsian","male",29,"hinduism","",17,"BI2A00039","definitely no",-3,821,"india"
"450","happy","A4H1NYJVE7C53","college_bachDegree","no_fluent","asian_southAsian","male",29,"hinduism","",18,"BI2A00041","definitely no",-3,882,"india"
"451","happy","A4H1NYJVE7C53","college_bachDegree","no_fluent","asian_southAsian","male",29,"hinduism","",19,"BI2A00008","maybe yes",1,1688,"india"
"452","happy","A4H1NYJVE7C53","college_bachDegree","no_fluent","asian_southAsian","male",29,"hinduism","",20,"BI2A00027","definitely no",-3,1364,"india"
"453","happy","A4H1NYJVE7C53","college_bachDegree","no_fluent","asian_southAsian","male",29,"hinduism","",21,"BI2A00037","definitely no",-3,1130,"india"
"454","happy","A4H1NYJVE7C53","college_bachDegree","no_fluent","asian_southAsian","male",29,"hinduism","",22,"BI2A00031","definitely no",-3,1150,"india"
"455","happy","A4H1NYJVE7C53","college_bachDegree","no_fluent","asian_southAsian","male",29,"hinduism","",23,"BI2A00042","definitely no",-3,1021,"india"
"456","happy","A4H1NYJVE7C53","college_bachDegree","no_fluent","asian_southAsian","male",29,"hinduism","",24,"BI2A00048","definitely no",-3,4422,"india"
"457","happy","A4H1NYJVE7C53","college_bachDegree","no_fluent","asian_southAsian","male",29,"hinduism","",25,"BI2A00021","definitely no",-3,1451,"india"
"458","happy","A4H1NYJVE7C53","college_bachDegree","no_fluent","asian_southAsian","male",29,"hinduism","",26,"BI2A00007","maybe yes",1,2068,"india"
"459","happy","A4H1NYJVE7C53","college_bachDegree","no_fluent","asian_southAsian","male",29,"hinduism","",27,"BI2A00014","definitely no",-3,3602,"india"
"460","happy","A4H1NYJVE7C53","college_bachDegree","no_fluent","asian_southAsian","male",29,"hinduism","",28,"BI2A00025","maybe yes",1,3010,"india"
"461","happy","A4H1NYJVE7C53","college_bachDegree","no_fluent","asian_southAsian","male",29,"hinduism","",29,"BI2A00043","definitely no",-3,1362,"india"
"462","happy","A4H1NYJVE7C53","college_bachDegree","no_fluent","asian_southAsian","male",29,"hinduism","",30,"BI2A00017","definitely no",-3,1615,"india"
"463","happy","A4H1NYJVE7C53","college_bachDegree","no_fluent","asian_southAsian","male",29,"hinduism","",31,"BI2A00023","definitely no",-3,3786,"india"
"464","happy","A4H1NYJVE7C53","college_bachDegree","no_fluent","asian_southAsian","male",29,"hinduism","",32,"BI2A00018","definitely no",-3,1012,"india"
"465","happy","A4H1NYJVE7C53","college_bachDegree","no_fluent","asian_southAsian","male",29,"hinduism","",33,"BI2A00003","maybe yes",1,2348,"india"
"466","happy","A4H1NYJVE7C53","college_bachDegree","no_fluent","asian_southAsian","male",29,"hinduism","",34,"BI2A00028","definitely no",-3,2769,"india"
"467","happy","A4H1NYJVE7C53","college_bachDegree","no_fluent","asian_southAsian","male",29,"hinduism","",35,"BI2A00012","definitely no",-3,3108,"india"
"468","happy","A4H1NYJVE7C53","college_bachDegree","no_fluent","asian_southAsian","male",29,"hinduism","",36,"BI2A00010","maybe yes",1,3145,"india"
"469","happy","A4H1NYJVE7C53","college_bachDegree","no_fluent","asian_southAsian","male",29,"hinduism","",37,"BI2A00015","definitely no",-3,1391,"india"
"470","happy","A4H1NYJVE7C53","college_bachDegree","no_fluent","asian_southAsian","male",29,"hinduism","",38,"BI2A00036","definitely no",-3,2036,"india"
"471","happy","A4H1NYJVE7C53","college_bachDegree","no_fluent","asian_southAsian","male",29,"hinduism","",39,"BI2A00040","definitely no",-3,1362,"india"
"472","happy","A4H1NYJVE7C53","college_bachDegree","no_fluent","asian_southAsian","male",29,"hinduism","",40,"BI2A00047","definitely no",-3,1162,"india"
"473","happy","A4H1NYJVE7C53","college_bachDegree","no_fluent","asian_southAsian","male",29,"hinduism","",41,"BI2A00032","definitely no",-3,1769,"india"
"474","happy","A4H1NYJVE7C53","college_bachDegree","no_fluent","asian_southAsian","male",29,"hinduism","",42,"BI2A00020","probably yes",2,1795,"india"
"475","happy","A4H1NYJVE7C53","college_bachDegree","no_fluent","asian_southAsian","male",29,"hinduism","",43,"BI2A00016","maybe yes",1,1983,"india"
"476","happy","A4H1NYJVE7C53","college_bachDegree","no_fluent","asian_southAsian","male",29,"hinduism","",44,"BI2A00034","definitely no",-3,2132,"india"
"477","happy","A4H1NYJVE7C53","college_bachDegree","no_fluent","asian_southAsian","male",29,"hinduism","",45,"BI2A00011","definitely yes",3,1723,"india"
"478","happy","A4H1NYJVE7C53","college_bachDegree","no_fluent","asian_southAsian","male",29,"hinduism","",46,"BI2A00019","maybe yes",1,4068,"india"
"479","happy","A4H1NYJVE7C53","college_bachDegree","no_fluent","asian_southAsian","male",29,"hinduism","",47,"BI2A00033","definitely no",-3,1387,"india"
"480","happy","A4H1NYJVE7C53","college_bachDegree","no_fluent","asian_southAsian","male",29,"hinduism","",48,"BI2A00029","definitely no",-3,1263,"india"
"481","feelings","A1JF9ZNXWK5QZU","college_bachDegree","no","asian_southAsian","female",31,"hinduism","Actually I like your work. I so glad to work with you. Keep it up. Lord bless you.",1,"BI2A00008","equally yes/no",0,15001,"india"
"482","feelings","A1JF9ZNXWK5QZU","college_bachDegree","no","asian_southAsian","female",31,"hinduism","Actually I like your work. I so glad to work with you. Keep it up. Lord bless you.",2,"BI2A00014","maybe yes",1,8912,"india"
"483","feelings","A1JF9ZNXWK5QZU","college_bachDegree","no","asian_southAsian","female",31,"hinduism","Actually I like your work. I so glad to work with you. Keep it up. Lord bless you.",3,"BI2A00003","probably yes",2,4376,"india"
"484","feelings","A1JF9ZNXWK5QZU","college_bachDegree","no","asian_southAsian","female",31,"hinduism","Actually I like your work. I so glad to work with you. Keep it up. Lord bless you.",4,"BI2A00004","definitely yes",3,1922,"india"
"485","feelings","A1JF9ZNXWK5QZU","college_bachDegree","no","asian_southAsian","female",31,"hinduism","Actually I like your work. I so glad to work with you. Keep it up. Lord bless you.",5,"BI2A00025","definitely yes",3,3046,"india"
"486","feelings","A1JF9ZNXWK5QZU","college_bachDegree","no","asian_southAsian","female",31,"hinduism","Actually I like your work. I so glad to work with you. Keep it up. Lord bless you.",6,"BI2A00027","maybe no",-1,2114,"india"
"487","feelings","A1JF9ZNXWK5QZU","college_bachDegree","no","asian_southAsian","female",31,"hinduism","Actually I like your work. I so glad to work with you. Keep it up. Lord bless you.",7,"BI2A00046","equally yes/no",0,6183,"india"
"488","feelings","A1JF9ZNXWK5QZU","college_bachDegree","no","asian_southAsian","female",31,"hinduism","Actually I like your work. I so glad to work with you. Keep it up. Lord bless you.",8,"BI2A00001","definitely yes",3,2592,"india"
"489","feelings","A1JF9ZNXWK5QZU","college_bachDegree","no","asian_southAsian","female",31,"hinduism","Actually I like your work. I so glad to work with you. Keep it up. Lord bless you.",9,"BI2A00020","definitely yes",3,1100,"india"
"490","feelings","A1JF9ZNXWK5QZU","college_bachDegree","no","asian_southAsian","female",31,"hinduism","Actually I like your work. I so glad to work with you. Keep it up. Lord bless you.",10,"BI2A00037","maybe no",-1,3734,"india"
"491","feelings","A1JF9ZNXWK5QZU","college_bachDegree","no","asian_southAsian","female",31,"hinduism","Actually I like your work. I so glad to work with you. Keep it up. Lord bless you.",11,"BI2A00024","definitely no",-3,6924,"india"
"492","feelings","A1JF9ZNXWK5QZU","college_bachDegree","no","asian_southAsian","female",31,"hinduism","Actually I like your work. I so glad to work with you. Keep it up. Lord bless you.",12,"BI2A00007","definitely yes",3,2957,"india"
"493","feelings","A1JF9ZNXWK5QZU","college_bachDegree","no","asian_southAsian","female",31,"hinduism","Actually I like your work. I so glad to work with you. Keep it up. Lord bless you.",13,"BI2A00010","equally yes/no",0,2642,"india"
"494","feelings","A1JF9ZNXWK5QZU","college_bachDegree","no","asian_southAsian","female",31,"hinduism","Actually I like your work. I so glad to work with you. Keep it up. Lord bless you.",14,"BI2A00011","equally yes/no",0,4307,"india"
"495","feelings","A1JF9ZNXWK5QZU","college_bachDegree","no","asian_southAsian","female",31,"hinduism","Actually I like your work. I so glad to work with you. Keep it up. Lord bless you.",15,"BI2A00019","maybe yes",1,2817,"india"
"496","feelings","A1JF9ZNXWK5QZU","college_bachDegree","no","asian_southAsian","female",31,"hinduism","Actually I like your work. I so glad to work with you. Keep it up. Lord bless you.",16,"BI2A00022","probably no",-2,4117,"india"
"497","feelings","A1JF9ZNXWK5QZU","college_bachDegree","no","asian_southAsian","female",31,"hinduism","Actually I like your work. I so glad to work with you. Keep it up. Lord bless you.",17,"BI2A00044","probably no",-2,2475,"india"
"498","feelings","A1JF9ZNXWK5QZU","college_bachDegree","no","asian_southAsian","female",31,"hinduism","Actually I like your work. I so glad to work with you. Keep it up. Lord bless you.",18,"BI2A00009","definitely yes",3,2879,"india"
"499","feelings","A1JF9ZNXWK5QZU","college_bachDegree","no","asian_southAsian","female",31,"hinduism","Actually I like your work. I so glad to work with you. Keep it up. Lord bless you.",19,"BI2A00012","maybe yes",1,2196,"india"
"500","feelings","A1JF9ZNXWK5QZU","college_bachDegree","no","asian_southAsian","female",31,"hinduism","Actually I like your work. I so glad to work with you. Keep it up. Lord bless you.",20,"BI2A00026","maybe yes",1,1290,"india"
"501","feelings","A1JF9ZNXWK5QZU","college_bachDegree","no","asian_southAsian","female",31,"hinduism","Actually I like your work. I so glad to work with you. Keep it up. Lord bless you.",21,"BI2A00023","maybe yes",1,2885,"india"
"502","feelings","A1JF9ZNXWK5QZU","college_bachDegree","no","asian_southAsian","female",31,"hinduism","Actually I like your work. I so glad to work with you. Keep it up. Lord bless you.",22,"BI2A00032","maybe no",-1,2772,"india"
"503","feelings","A1JF9ZNXWK5QZU","college_bachDegree","no","asian_southAsian","female",31,"hinduism","Actually I like your work. I so glad to work with you. Keep it up. Lord bless you.",23,"BI2A00043","equally yes/no",0,2251,"india"
"504","feelings","A1JF9ZNXWK5QZU","college_bachDegree","no","asian_southAsian","female",31,"hinduism","Actually I like your work. I so glad to work with you. Keep it up. Lord bless you.",24,"BI2A00015","probably yes",2,2981,"india"
"505","feelings","A1JF9ZNXWK5QZU","college_bachDegree","no","asian_southAsian","female",31,"hinduism","Actually I like your work. I so glad to work with you. Keep it up. Lord bless you.",25,"BI2A00040","maybe yes",1,1629,"india"
"506","feelings","A1JF9ZNXWK5QZU","college_bachDegree","no","asian_southAsian","female",31,"hinduism","Actually I like your work. I so glad to work with you. Keep it up. Lord bless you.",26,"BI2A00047","probably yes",2,1319,"india"
"507","feelings","A1JF9ZNXWK5QZU","college_bachDegree","no","asian_southAsian","female",31,"hinduism","Actually I like your work. I so glad to work with you. Keep it up. Lord bless you.",27,"BI2A00017","equally yes/no",0,4380,"india"
"508","feelings","A1JF9ZNXWK5QZU","college_bachDegree","no","asian_southAsian","female",31,"hinduism","Actually I like your work. I so glad to work with you. Keep it up. Lord bless you.",28,"BI2A00038","equally yes/no",0,3558,"india"
"509","feelings","A1JF9ZNXWK5QZU","college_bachDegree","no","asian_southAsian","female",31,"hinduism","Actually I like your work. I so glad to work with you. Keep it up. Lord bless you.",29,"BI2A00045","probably no",-2,6678,"india"
"510","feelings","A1JF9ZNXWK5QZU","college_bachDegree","no","asian_southAsian","female",31,"hinduism","Actually I like your work. I so glad to work with you. Keep it up. Lord bless you.",30,"BI2A00036","equally yes/no",0,2029,"india"
"511","feelings","A1JF9ZNXWK5QZU","college_bachDegree","no","asian_southAsian","female",31,"hinduism","Actually I like your work. I so glad to work with you. Keep it up. Lord bless you.",31,"BI2A00021","equally yes/no",0,1740,"india"
"512","feelings","A1JF9ZNXWK5QZU","college_bachDegree","no","asian_southAsian","female",31,"hinduism","Actually I like your work. I so glad to work with you. Keep it up. Lord bless you.",32,"BI2A00033","maybe no",-1,2559,"india"
"513","feelings","A1JF9ZNXWK5QZU","college_bachDegree","no","asian_southAsian","female",31,"hinduism","Actually I like your work. I so glad to work with you. Keep it up. Lord bless you.",33,"BI2A00016","definitely yes",3,1841,"india"
"514","feelings","A1JF9ZNXWK5QZU","college_bachDegree","no","asian_southAsian","female",31,"hinduism","Actually I like your work. I so glad to work with you. Keep it up. Lord bless you.",34,"BI2A00006","definitely yes",3,1632,"india"
"515","feelings","A1JF9ZNXWK5QZU","college_bachDegree","no","asian_southAsian","female",31,"hinduism","Actually I like your work. I so glad to work with you. Keep it up. Lord bless you.",35,"BI2A00018","equally yes/no",0,3298,"india"
"516","feelings","A1JF9ZNXWK5QZU","college_bachDegree","no","asian_southAsian","female",31,"hinduism","Actually I like your work. I so glad to work with you. Keep it up. Lord bless you.",36,"BI2A00029","definitely yes",3,1562,"india"
"517","feelings","A1JF9ZNXWK5QZU","college_bachDegree","no","asian_southAsian","female",31,"hinduism","Actually I like your work. I so glad to work with you. Keep it up. Lord bless you.",37,"BI2A00031","definitely yes",3,1158,"india"
"518","feelings","A1JF9ZNXWK5QZU","college_bachDegree","no","asian_southAsian","female",31,"hinduism","Actually I like your work. I so glad to work with you. Keep it up. Lord bless you.",38,"BI2A00002","definitely yes",3,4869,"india"
"519","feelings","A1JF9ZNXWK5QZU","college_bachDegree","no","asian_southAsian","female",31,"hinduism","Actually I like your work. I so glad to work with you. Keep it up. Lord bless you.",39,"BI2A00039","definitely no",-3,1992,"india"
"520","feelings","A1JF9ZNXWK5QZU","college_bachDegree","no","asian_southAsian","female",31,"hinduism","Actually I like your work. I so glad to work with you. Keep it up. Lord bless you.",40,"BI2A00013","definitely yes",3,1928,"india"
"521","feelings","A1JF9ZNXWK5QZU","college_bachDegree","no","asian_southAsian","female",31,"hinduism","Actually I like your work. I so glad to work with you. Keep it up. Lord bless you.",41,"BI2A00028","equally yes/no",0,2117,"india"
"522","feelings","A1JF9ZNXWK5QZU","college_bachDegree","no","asian_southAsian","female",31,"hinduism","Actually I like your work. I so glad to work with you. Keep it up. Lord bless you.",42,"BI2A00005","probably yes",2,1605,"india"
"523","feelings","A1JF9ZNXWK5QZU","college_bachDegree","no","asian_southAsian","female",31,"hinduism","Actually I like your work. I so glad to work with you. Keep it up. Lord bless you.",43,"BI2A00041","equally yes/no",0,2667,"india"
"524","feelings","A1JF9ZNXWK5QZU","college_bachDegree","no","asian_southAsian","female",31,"hinduism","Actually I like your work. I so glad to work with you. Keep it up. Lord bless you.",44,"BI2A00035","equally yes/no",0,2825,"india"
"525","feelings","A1JF9ZNXWK5QZU","college_bachDegree","no","asian_southAsian","female",31,"hinduism","Actually I like your work. I so glad to work with you. Keep it up. Lord bless you.",45,"BI2A00042","definitely no",-3,2992,"india"
"526","feelings","A1JF9ZNXWK5QZU","college_bachDegree","no","asian_southAsian","female",31,"hinduism","Actually I like your work. I so glad to work with you. Keep it up. Lord bless you.",46,"BI2A00030","maybe no",-1,3501,"india"
"527","feelings","A1JF9ZNXWK5QZU","college_bachDegree","no","asian_southAsian","female",31,"hinduism","Actually I like your work. I so glad to work with you. Keep it up. Lord bless you.",47,"BI2A00048","equally yes/no",0,1500,"india"
"528","feelings","A1JF9ZNXWK5QZU","college_bachDegree","no","asian_southAsian","female",31,"hinduism","Actually I like your work. I so glad to work with you. Keep it up. Lord bless you.",48,"BI2A00034","maybe no",-1,3559,"india"
"529","happy","A3BT5LTI48PLUN","college_bachDegree","no_moderatelywell","asian_southAsian","female",27,"hinduism","NO",1,"BI2A00015","maybe no",-1,10902,"india"
"530","happy","A3BT5LTI48PLUN","college_bachDegree","no_moderatelywell","asian_southAsian","female",27,"hinduism","NO",2,"BI2A00042","equally yes/no",0,115860,"india"
"531","happy","A3BT5LTI48PLUN","college_bachDegree","no_moderatelywell","asian_southAsian","female",27,"hinduism","NO",3,"BI2A00017","maybe yes",1,6362,"india"
"532","happy","A3BT5LTI48PLUN","college_bachDegree","no_moderatelywell","asian_southAsian","female",27,"hinduism","NO",4,"BI2A00043","maybe yes",1,2567,"india"
"533","happy","A3BT5LTI48PLUN","college_bachDegree","no_moderatelywell","asian_southAsian","female",27,"hinduism","NO",5,"BI2A00039","maybe yes",1,2437,"india"
"534","happy","A3BT5LTI48PLUN","college_bachDegree","no_moderatelywell","asian_southAsian","female",27,"hinduism","NO",6,"BI2A00004","maybe no",-1,2979,"india"
"535","happy","A3BT5LTI48PLUN","college_bachDegree","no_moderatelywell","asian_southAsian","female",27,"hinduism","NO",7,"BI2A00041","maybe no",-1,2707,"india"
"536","happy","A3BT5LTI48PLUN","college_bachDegree","no_moderatelywell","asian_southAsian","female",27,"hinduism","NO",8,"BI2A00006","probably yes",2,2103,"india"
"537","happy","A3BT5LTI48PLUN","college_bachDegree","no_moderatelywell","asian_southAsian","female",27,"hinduism","NO",9,"BI2A00001","probably yes",2,1637,"india"
"538","happy","A3BT5LTI48PLUN","college_bachDegree","no_moderatelywell","asian_southAsian","female",27,"hinduism","NO",10,"BI2A00022","maybe no",-1,1956,"india"
"539","happy","A3BT5LTI48PLUN","college_bachDegree","no_moderatelywell","asian_southAsian","female",27,"hinduism","NO",11,"BI2A00037","equally yes/no",0,2047,"india"
"540","happy","A3BT5LTI48PLUN","college_bachDegree","no_moderatelywell","asian_southAsian","female",27,"hinduism","NO",12,"BI2A00003","equally yes/no",0,2163,"india"
"541","happy","A3BT5LTI48PLUN","college_bachDegree","no_moderatelywell","asian_southAsian","female",27,"hinduism","NO",13,"BI2A00018","maybe yes",1,1477,"india"
"542","happy","A3BT5LTI48PLUN","college_bachDegree","no_moderatelywell","asian_southAsian","female",27,"hinduism","NO",14,"BI2A00028","maybe yes",1,1533,"india"
"543","happy","A3BT5LTI48PLUN","college_bachDegree","no_moderatelywell","asian_southAsian","female",27,"hinduism","NO",15,"BI2A00035","maybe yes",1,1983,"india"
"544","happy","A3BT5LTI48PLUN","college_bachDegree","no_moderatelywell","asian_southAsian","female",27,"hinduism","NO",16,"BI2A00016","maybe yes",1,1810,"india"
"545","happy","A3BT5LTI48PLUN","college_bachDegree","no_moderatelywell","asian_southAsian","female",27,"hinduism","NO",17,"BI2A00048","maybe yes",1,1793,"india"
"546","happy","A3BT5LTI48PLUN","college_bachDegree","no_moderatelywell","asian_southAsian","female",27,"hinduism","NO",18,"BI2A00045","maybe yes",1,1374,"india"
"547","happy","A3BT5LTI48PLUN","college_bachDegree","no_moderatelywell","asian_southAsian","female",27,"hinduism","NO",19,"BI2A00011","maybe yes",1,1590,"india"
"548","happy","A3BT5LTI48PLUN","college_bachDegree","no_moderatelywell","asian_southAsian","female",27,"hinduism","NO",20,"BI2A00030","equally yes/no",0,1836,"india"
"549","happy","A3BT5LTI48PLUN","college_bachDegree","no_moderatelywell","asian_southAsian","female",27,"hinduism","NO",21,"BI2A00020","maybe yes",1,1487,"india"
"550","happy","A3BT5LTI48PLUN","college_bachDegree","no_moderatelywell","asian_southAsian","female",27,"hinduism","NO",22,"BI2A00026","probably yes",2,1693,"india"
"551","happy","A3BT5LTI48PLUN","college_bachDegree","no_moderatelywell","asian_southAsian","female",27,"hinduism","NO",23,"BI2A00029","probably yes",2,1354,"india"
"552","happy","A3BT5LTI48PLUN","college_bachDegree","no_moderatelywell","asian_southAsian","female",27,"hinduism","NO",24,"BI2A00005","probably yes",2,1443,"india"
"553","happy","A3BT5LTI48PLUN","college_bachDegree","no_moderatelywell","asian_southAsian","female",27,"hinduism","NO",25,"BI2A00033","equally yes/no",0,3613,"india"
"554","happy","A3BT5LTI48PLUN","college_bachDegree","no_moderatelywell","asian_southAsian","female",27,"hinduism","NO",26,"BI2A00007","maybe yes",1,1678,"india"
"555","happy","A3BT5LTI48PLUN","college_bachDegree","no_moderatelywell","asian_southAsian","female",27,"hinduism","NO",27,"BI2A00013","probably yes",2,1787,"india"
"556","happy","A3BT5LTI48PLUN","college_bachDegree","no_moderatelywell","asian_southAsian","female",27,"hinduism","NO",28,"BI2A00024","probably yes",2,1442,"india"
"557","happy","A3BT5LTI48PLUN","college_bachDegree","no_moderatelywell","asian_southAsian","female",27,"hinduism","NO",29,"BI2A00010","probably yes",2,1463,"india"
"558","happy","A3BT5LTI48PLUN","college_bachDegree","no_moderatelywell","asian_southAsian","female",27,"hinduism","NO",30,"BI2A00021","maybe yes",1,1543,"india"
"559","happy","A3BT5LTI48PLUN","college_bachDegree","no_moderatelywell","asian_southAsian","female",27,"hinduism","NO",31,"BI2A00031","maybe yes",1,1283,"india"
"560","happy","A3BT5LTI48PLUN","college_bachDegree","no_moderatelywell","asian_southAsian","female",27,"hinduism","NO",32,"BI2A00002","maybe yes",1,1537,"india"
"561","happy","A3BT5LTI48PLUN","college_bachDegree","no_moderatelywell","asian_southAsian","female",27,"hinduism","NO",33,"BI2A00032","maybe yes",1,1220,"india"
"562","happy","A3BT5LTI48PLUN","college_bachDegree","no_moderatelywell","asian_southAsian","female",27,"hinduism","NO",34,"BI2A00008","maybe yes",1,1170,"india"
"563","happy","A3BT5LTI48PLUN","college_bachDegree","no_moderatelywell","asian_southAsian","female",27,"hinduism","NO",35,"BI2A00012","maybe yes",1,1843,"india"
"564","happy","A3BT5LTI48PLUN","college_bachDegree","no_moderatelywell","asian_southAsian","female",27,"hinduism","NO",36,"BI2A00038","maybe no",-1,1540,"india"
"565","happy","A3BT5LTI48PLUN","college_bachDegree","no_moderatelywell","asian_southAsian","female",27,"hinduism","NO",37,"BI2A00019","maybe no",-1,2330,"india"
"566","happy","A3BT5LTI48PLUN","college_bachDegree","no_moderatelywell","asian_southAsian","female",27,"hinduism","NO",38,"BI2A00027","maybe no",-1,2050,"india"
"567","happy","A3BT5LTI48PLUN","college_bachDegree","no_moderatelywell","asian_southAsian","female",27,"hinduism","NO",39,"BI2A00036","equally yes/no",0,2436,"india"
"568","happy","A3BT5LTI48PLUN","college_bachDegree","no_moderatelywell","asian_southAsian","female",27,"hinduism","NO",40,"BI2A00044","equally yes/no",0,1493,"india"
"569","happy","A3BT5LTI48PLUN","college_bachDegree","no_moderatelywell","asian_southAsian","female",27,"hinduism","NO",41,"BI2A00034","maybe yes",1,2303,"india"
"570","happy","A3BT5LTI48PLUN","college_bachDegree","no_moderatelywell","asian_southAsian","female",27,"hinduism","NO",42,"BI2A00040","maybe no",-1,1767,"india"
"571","happy","A3BT5LTI48PLUN","college_bachDegree","no_moderatelywell","asian_southAsian","female",27,"hinduism","NO",43,"BI2A00025","maybe yes",1,1776,"india"
"572","happy","A3BT5LTI48PLUN","college_bachDegree","no_moderatelywell","asian_southAsian","female",27,"hinduism","NO",44,"BI2A00023","probably yes",2,1817,"india"
"573","happy","A3BT5LTI48PLUN","college_bachDegree","no_moderatelywell","asian_southAsian","female",27,"hinduism","NO",45,"BI2A00014","maybe no",-1,2206,"india"
"574","happy","A3BT5LTI48PLUN","college_bachDegree","no_moderatelywell","asian_southAsian","female",27,"hinduism","NO",46,"BI2A00009","equally yes/no",0,1810,"india"
"575","happy","A3BT5LTI48PLUN","college_bachDegree","no_moderatelywell","asian_southAsian","female",27,"hinduism","NO",47,"BI2A00047","maybe no",-1,1677,"india"
"576","happy","A3BT5LTI48PLUN","college_bachDegree","no_moderatelywell","asian_southAsian","female",27,"hinduism","NO",48,"BI2A00046","maybe yes",1,1606,"india"
"577","think","A1MQS6VU9GP4ZE","grad_degree","yes_multiple","asian_southAsian","male",28,"christianity_catholic","",1,"BI2A00038","definitely no",-3,17223,"india"
"578","think","A1MQS6VU9GP4ZE","grad_degree","yes_multiple","asian_southAsian","male",28,"christianity_catholic","",2,"BI2A00027","definitely no",-3,2423,"india"
"579","think","A1MQS6VU9GP4ZE","grad_degree","yes_multiple","asian_southAsian","male",28,"christianity_catholic","",3,"BI2A00042","definitely no",-3,5793,"india"
"580","think","A1MQS6VU9GP4ZE","grad_degree","yes_multiple","asian_southAsian","male",28,"christianity_catholic","",4,"BI2A00036","maybe no",-1,1747,"india"
"581","think","A1MQS6VU9GP4ZE","grad_degree","yes_multiple","asian_southAsian","male",28,"christianity_catholic","",5,"BI2A00044","probably no",-2,2771,"india"
