"","condition","worker_id","education","english_native","gender","age","religion","comments","trialNum","swatch","response","responseCoded","rt","country"
"1","hungry","A3DFCGAXJHV1P9","college_bachDegree","no","male",63,"hinduism","A new experience.I didn't have any cue of what to expect in the coming experiment.Any way it was interesting.Thank you.",1,"BI2A00034","maybe yes",1,20615,"india"
"2","hungry","A3DFCGAXJHV1P9","college_bachDegree","no","male",63,"hinduism","A new experience.I didn't have any cue of what to expect in the coming experiment.Any way it was interesting.Thank you.",2,"BI2A00011","probably yes",2,7362,"india"
"3","hungry","A3DFCGAXJHV1P9","college_bachDegree","no","male",63,"hinduism","A new experience.I didn't have any cue of what to expect in the coming experiment.Any way it was interesting.Thank you.",3,"BI2A00010","probably yes",2,5997,"india"
"4","hungry","A3DFCGAXJHV1P9","college_bachDegree","no","male",63,"hinduism","A new experience.I didn't have any cue of what to expect in the coming experiment.Any way it was interesting.Thank you.",4,"BI2A00009","definitely yes",3,5728,"india"
"5","hungry","A3DFCGAXJHV1P9","college_bachDegree","no","male",63,"hinduism","A new experience.I didn't have any cue of what to expect in the coming experiment.Any way it was interesting.Thank you.",5,"BI2A00029","maybe no",-1,8787,"india"
"6","hungry","A3DFCGAXJHV1P9","college_bachDegree","no","male",63,"hinduism","A new experience.I didn't have any cue of what to expect in the coming experiment.Any way it was interesting.Thank you.",6,"BI2A00046","definitely no",-3,3247,"india"
"7","hungry","A3DFCGAXJHV1P9","college_bachDegree","no","male",63,"hinduism","A new experience.I didn't have any cue of what to expect in the coming experiment.Any way it was interesting.Thank you.",7,"BI2A00038","definitely no",-3,2969,"india"
"8","hungry","A3DFCGAXJHV1P9","college_bachDegree","no","male",63,"hinduism","A new experience.I didn't have any cue of what to expect in the coming experiment.Any way it was interesting.Thank you.",8,"BI2A00039","definitely no",-3,3994,"india"
"9","hungry","A3DFCGAXJHV1P9","college_bachDegree","no","male",63,"hinduism","A new experience.I didn't have any cue of what to expect in the coming experiment.Any way it was interesting.Thank you.",9,"BI2A00048","definitely no",-3,1855,"india"
"10","hungry","A3DFCGAXJHV1P9","college_bachDegree","no","male",63,"hinduism","A new experience.I didn't have any cue of what to expect in the coming experiment.Any way it was interesting.Thank you.",10,"BI2A00012","equally yes/no",0,5466,"india"
"11","hungry","A3DFCGAXJHV1P9","college_bachDegree","no","male",63,"hinduism","A new experience.I didn't have any cue of what to expect in the coming experiment.Any way it was interesting.Thank you.",11,"BI2A00028","maybe no",-1,2783,"india"
"12","hungry","A3DFCGAXJHV1P9","college_bachDegree","no","male",63,"hinduism","A new experience.I didn't have any cue of what to expect in the coming experiment.Any way it was interesting.Thank you.",12,"BI2A00042","definitely no",-3,11346,"india"
"13","hungry","A3DFCGAXJHV1P9","college_bachDegree","no","male",63,"hinduism","A new experience.I didn't have any cue of what to expect in the coming experiment.Any way it was interesting.Thank you.",13,"BI2A00030","definitely no",-3,2154,"india"
"14","hungry","A3DFCGAXJHV1P9","college_bachDegree","no","male",63,"hinduism","A new experience.I didn't have any cue of what to expect in the coming experiment.Any way it was interesting.Thank you.",14,"BI2A00023","maybe yes",1,3787,"india"
"15","hungry","A3DFCGAXJHV1P9","college_bachDegree","no","male",63,"hinduism","A new experience.I didn't have any cue of what to expect in the coming experiment.Any way it was interesting.Thank you.",15,"BI2A00031","definitely no",-3,2844,"india"
"16","hungry","A3DFCGAXJHV1P9","college_bachDegree","no","male",63,"hinduism","A new experience.I didn't have any cue of what to expect in the coming experiment.Any way it was interesting.Thank you.",16,"BI2A00017","definitely no",-3,2319,"india"
"17","hungry","A3DFCGAXJHV1P9","college_bachDegree","no","male",63,"hinduism","A new experience.I didn't have any cue of what to expect in the coming experiment.Any way it was interesting.Thank you.",17,"BI2A00041","probably no",-2,2633,"india"
"18","hungry","A3DFCGAXJHV1P9","college_bachDegree","no","male",63,"hinduism","A new experience.I didn't have any cue of what to expect in the coming experiment.Any way it was interesting.Thank you.",18,"BI2A00014","equally yes/no",0,7375,"india"
"19","hungry","A3DFCGAXJHV1P9","college_bachDegree","no","male",63,"hinduism","A new experience.I didn't have any cue of what to expect in the coming experiment.Any way it was interesting.Thank you.",19,"BI2A00007","definitely yes",3,5318,"india"
"20","hungry","A3DFCGAXJHV1P9","college_bachDegree","no","male",63,"hinduism","A new experience.I didn't have any cue of what to expect in the coming experiment.Any way it was interesting.Thank you.",20,"BI2A00035","definitely no",-3,2499,"india"
"21","hungry","A3DFCGAXJHV1P9","college_bachDegree","no","male",63,"hinduism","A new experience.I didn't have any cue of what to expect in the coming experiment.Any way it was interesting.Thank you.",21,"BI2A00025","equally yes/no",0,4167,"india"
"22","hungry","A3DFCGAXJHV1P9","college_bachDegree","no","male",63,"hinduism","A new experience.I didn't have any cue of what to expect in the coming experiment.Any way it was interesting.Thank you.",22,"BI2A00027","maybe no",-1,3964,"india"
"23","hungry","A3DFCGAXJHV1P9","college_bachDegree","no","male",63,"hinduism","A new experience.I didn't have any cue of what to expect in the coming experiment.Any way it was interesting.Thank you.",23,"BI2A00003","probably yes",2,2351,"india"
"24","hungry","A3DFCGAXJHV1P9","college_bachDegree","no","male",63,"hinduism","A new experience.I didn't have any cue of what to expect in the coming experiment.Any way it was interesting.Thank you.",24,"BI2A00021","probably no",-2,2397,"india"
"25","hungry","A3DFCGAXJHV1P9","college_bachDegree","no","male",63,"hinduism","A new experience.I didn't have any cue of what to expect in the coming experiment.Any way it was interesting.Thank you.",25,"BI2A00002","definitely yes",3,1837,"india"
"26","hungry","A3DFCGAXJHV1P9","college_bachDegree","no","male",63,"hinduism","A new experience.I didn't have any cue of what to expect in the coming experiment.Any way it was interesting.Thank you.",26,"BI2A00018","definitely no",-3,2351,"india"
"27","hungry","A3DFCGAXJHV1P9","college_bachDegree","no","male",63,"hinduism","A new experience.I didn't have any cue of what to expect in the coming experiment.Any way it was interesting.Thank you.",27,"BI2A00045","definitely no",-3,1579,"india"
"28","hungry","A3DFCGAXJHV1P9","college_bachDegree","no","male",63,"hinduism","A new experience.I didn't have any cue of what to expect in the coming experiment.Any way it was interesting.Thank you.",28,"BI2A00004","probably yes",2,2550,"india"
"29","hungry","A3DFCGAXJHV1P9","college_bachDegree","no","male",63,"hinduism","A new experience.I didn't have any cue of what to expect in the coming experiment.Any way it was interesting.Thank you.",29,"BI2A00005","definitely yes",3,1820,"india"
"30","hungry","A3DFCGAXJHV1P9","college_bachDegree","no","male",63,"hinduism","A new experience.I didn't have any cue of what to expect in the coming experiment.Any way it was interesting.Thank you.",30,"BI2A00008","definitely yes",3,1996,"india"
"31","hungry","A3DFCGAXJHV1P9","college_bachDegree","no","male",63,"hinduism","A new experience.I didn't have any cue of what to expect in the coming experiment.Any way it was interesting.Thank you.",31,"BI2A00032","probably no",-2,2285,"india"
"32","hungry","A3DFCGAXJHV1P9","college_bachDegree","no","male",63,"hinduism","A new experience.I didn't have any cue of what to expect in the coming experiment.Any way it was interesting.Thank you.",32,"BI2A00013","probably yes",2,1699,"india"
"33","hungry","A3DFCGAXJHV1P9","college_bachDegree","no","male",63,"hinduism","A new experience.I didn't have any cue of what to expect in the coming experiment.Any way it was interesting.Thank you.",33,"BI2A00040","definitely no",-3,1616,"india"
"34","hungry","A3DFCGAXJHV1P9","college_bachDegree","no","male",63,"hinduism","A new experience.I didn't have any cue of what to expect in the coming experiment.Any way it was interesting.Thank you.",34,"BI2A00024","definitely yes",3,3388,"india"
"35","hungry","A3DFCGAXJHV1P9","college_bachDegree","no","male",63,"hinduism","A new experience.I didn't have any cue of what to expect in the coming experiment.Any way it was interesting.Thank you.",35,"BI2A00047","equally yes/no",0,3795,"india"
"36","hungry","A3DFCGAXJHV1P9","college_bachDegree","no","male",63,"hinduism","A new experience.I didn't have any cue of what to expect in the coming experiment.Any way it was interesting.Thank you.",36,"BI2A00019","maybe yes",1,1952,"india"
"37","hungry","A3DFCGAXJHV1P9","college_bachDegree","no","male",63,"hinduism","A new experience.I didn't have any cue of what to expect in the coming experiment.Any way it was interesting.Thank you.",37,"BI2A00022","probably no",-2,2051,"india"
"38","hungry","A3DFCGAXJHV1P9","college_bachDegree","no","male",63,"hinduism","A new experience.I didn't have any cue of what to expect in the coming experiment.Any way it was interesting.Thank you.",38,"BI2A00043","probably no",-2,3400,"india"
"39","hungry","A3DFCGAXJHV1P9","college_bachDegree","no","male",63,"hinduism","A new experience.I didn't have any cue of what to expect in the coming experiment.Any way it was interesting.Thank you.",39,"BI2A00020","equally yes/no",0,2303,"india"
"40","hungry","A3DFCGAXJHV1P9","college_bachDegree","no","male",63,"hinduism","A new experience.I didn't have any cue of what to expect in the coming experiment.Any way it was interesting.Thank you.",40,"BI2A00037","probably no",-2,3011,"india"
"41","hungry","A3DFCGAXJHV1P9","college_bachDegree","no","male",63,"hinduism","A new experience.I didn't have any cue of what to expect in the coming experiment.Any way it was interesting.Thank you.",41,"BI2A00016","equally yes/no",0,3005,"india"
"42","hungry","A3DFCGAXJHV1P9","college_bachDegree","no","male",63,"hinduism","A new experience.I didn't have any cue of what to expect in the coming experiment.Any way it was interesting.Thank you.",42,"BI2A00044","definitely no",-3,1881,"india"
"43","hungry","A3DFCGAXJHV1P9","college_bachDegree","no","male",63,"hinduism","A new experience.I didn't have any cue of what to expect in the coming experiment.Any way it was interesting.Thank you.",43,"BI2A00006","definitely yes",3,3166,"india"
"44","hungry","A3DFCGAXJHV1P9","college_bachDegree","no","male",63,"hinduism","A new experience.I didn't have any cue of what to expect in the coming experiment.Any way it was interesting.Thank you.",44,"BI2A00026","probably yes",2,3117,"india"
"45","hungry","A3DFCGAXJHV1P9","college_bachDegree","no","male",63,"hinduism","A new experience.I didn't have any cue of what to expect in the coming experiment.Any way it was interesting.Thank you.",45,"BI2A00015","definitely yes",3,2150,"india"
"46","hungry","A3DFCGAXJHV1P9","college_bachDegree","no","male",63,"hinduism","A new experience.I didn't have any cue of what to expect in the coming experiment.Any way it was interesting.Thank you.",46,"BI2A00036","maybe no",-1,3434,"india"
"47","hungry","A3DFCGAXJHV1P9","college_bachDegree","no","male",63,"hinduism","A new experience.I didn't have any cue of what to expect in the coming experiment.Any way it was interesting.Thank you.",47,"BI2A00033","maybe no",-1,5381,"india"
"48","hungry","A3DFCGAXJHV1P9","college_bachDegree","no","male",63,"hinduism","A new experience.I didn't have any cue of what to expect in the coming experiment.Any way it was interesting.Thank you.",48,"BI2A00001","probably yes",2,2634,"india"
"49","hungry","A2LWK1B4X25M5Q","grad_some","yes_multiple","male",35,"hinduism","nothing",1,"BI2A00015","definitely no",-3,8385,"india"
"50","hungry","A2LWK1B4X25M5Q","grad_some","yes_multiple","male",35,"hinduism","nothing",2,"BI2A00001","definitely no",-3,5770,"india"
"51","hungry","A2LWK1B4X25M5Q","grad_some","yes_multiple","male",35,"hinduism","nothing",3,"BI2A00016","probably no",-2,7835,"india"
"52","hungry","A2LWK1B4X25M5Q","grad_some","yes_multiple","male",35,"hinduism","nothing",4,"BI2A00041","definitely no",-3,3123,"india"
"53","hungry","A2LWK1B4X25M5Q","grad_some","yes_multiple","male",35,"hinduism","nothing",5,"BI2A00020","probably no",-2,3497,"india"
"54","hungry","A2LWK1B4X25M5Q","grad_some","yes_multiple","male",35,"hinduism","nothing",6,"BI2A00034","definitely no",-3,3781,"india"
"55","hungry","A2LWK1B4X25M5Q","grad_some","yes_multiple","male",35,"hinduism","nothing",7,"BI2A00043","maybe no",-1,3452,"india"
"56","hungry","A2LWK1B4X25M5Q","grad_some","yes_multiple","male",35,"hinduism","nothing",8,"BI2A00045","probably no",-2,1766,"india"
"57","hungry","A2LWK1B4X25M5Q","grad_some","yes_multiple","male",35,"hinduism","nothing",9,"BI2A00036","maybe no",-1,2368,"india"
"58","hungry","A2LWK1B4X25M5Q","grad_some","yes_multiple","male",35,"hinduism","nothing",10,"BI2A00013","definitely no",-3,2692,"india"
"59","hungry","A2LWK1B4X25M5Q","grad_some","yes_multiple","male",35,"hinduism","nothing",11,"BI2A00017","probably no",-2,2134,"india"
"60","hungry","A2LWK1B4X25M5Q","grad_some","yes_multiple","male",35,"hinduism","nothing",12,"BI2A00025","definitely no",-3,2519,"india"
"61","hungry","A2LWK1B4X25M5Q","grad_some","yes_multiple","male",35,"hinduism","nothing",13,"BI2A00042","definitely no",-3,1905,"india"
"62","hungry","A2LWK1B4X25M5Q","grad_some","yes_multiple","male",35,"hinduism","nothing",14,"BI2A00009","definitely no",-3,1988,"india"
"63","hungry","A2LWK1B4X25M5Q","grad_some","yes_multiple","male",35,"hinduism","nothing",15,"BI2A00006","maybe no",-1,2114,"india"
"64","hungry","A2LWK1B4X25M5Q","grad_some","yes_multiple","male",35,"hinduism","nothing",16,"BI2A00005","probably no",-2,2243,"india"
"65","hungry","A2LWK1B4X25M5Q","grad_some","yes_multiple","male",35,"hinduism","nothing",17,"BI2A00046","probably no",-2,2249,"india"
"66","hungry","A2LWK1B4X25M5Q","grad_some","yes_multiple","male",35,"hinduism","nothing",18,"BI2A00030","definitely no",-3,2221,"india"
"67","hungry","A2LWK1B4X25M5Q","grad_some","yes_multiple","male",35,"hinduism","nothing",19,"BI2A00033","definitely no",-3,1725,"india"
"68","hungry","A2LWK1B4X25M5Q","grad_some","yes_multiple","male",35,"hinduism","nothing",20,"BI2A00011","definitely no",-3,2093,"india"
"69","hungry","A2LWK1B4X25M5Q","grad_some","yes_multiple","male",35,"hinduism","nothing",21,"BI2A00019","probably no",-2,6099,"india"
"70","hungry","A2LWK1B4X25M5Q","grad_some","yes_multiple","male",35,"hinduism","nothing",22,"BI2A00002","probably no",-2,2822,"india"
"71","hungry","A2LWK1B4X25M5Q","grad_some","yes_multiple","male",35,"hinduism","nothing",23,"BI2A00024","definitely no",-3,2772,"india"
"72","hungry","A2LWK1B4X25M5Q","grad_some","yes_multiple","male",35,"hinduism","nothing",24,"BI2A00010","probably no",-2,2578,"india"
"73","hungry","A2LWK1B4X25M5Q","grad_some","yes_multiple","male",35,"hinduism","nothing",25,"BI2A00040","maybe no",-1,2298,"india"
"74","hungry","A2LWK1B4X25M5Q","grad_some","yes_multiple","male",35,"hinduism","nothing",26,"BI2A00018","probably no",-2,2199,"india"
"75","hungry","A2LWK1B4X25M5Q","grad_some","yes_multiple","male",35,"hinduism","nothing",27,"BI2A00023","probably no",-2,2257,"india"
"76","hungry","A2LWK1B4X25M5Q","grad_some","yes_multiple","male",35,"hinduism","nothing",28,"BI2A00048","definitely no",-3,1795,"india"
"77","hungry","A2LWK1B4X25M5Q","grad_some","yes_multiple","male",35,"hinduism","nothing",29,"BI2A00022","definitely no",-3,1690,"india"
"78","hungry","A2LWK1B4X25M5Q","grad_some","yes_multiple","male",35,"hinduism","nothing",30,"BI2A00021","definitely no",-3,1188,"india"
"79","hungry","A2LWK1B4X25M5Q","grad_some","yes_multiple","male",35,"hinduism","nothing",31,"BI2A00038","definitely no",-3,1043,"india"
"80","hungry","A2LWK1B4X25M5Q","grad_some","yes_multiple","male",35,"hinduism","nothing",32,"BI2A00039","probably no",-2,1484,"india"
"81","hungry","A2LWK1B4X25M5Q","grad_some","yes_multiple","male",35,"hinduism","nothing",33,"BI2A00047","probably no",-2,1373,"india"
"82","hungry","A2LWK1B4X25M5Q","grad_some","yes_multiple","male",35,"hinduism","nothing",34,"BI2A00031","probably no",-2,1777,"india"
"83","hungry","A2LWK1B4X25M5Q","grad_some","yes_multiple","male",35,"hinduism","nothing",35,"BI2A00027","probably no",-2,1506,"india"
"84","hungry","A2LWK1B4X25M5Q","grad_some","yes_multiple","male",35,"hinduism","nothing",36,"BI2A00028","definitely no",-3,1707,"india"
"85","hungry","A2LWK1B4X25M5Q","grad_some","yes_multiple","male",35,"hinduism","nothing",37,"BI2A00029","definitely no",-3,1078,"india"
"86","hungry","A2LWK1B4X25M5Q","grad_some","yes_multiple","male",35,"hinduism","nothing",38,"BI2A00014","probably no",-2,1199,"india"
"87","hungry","A2LWK1B4X25M5Q","grad_some","yes_multiple","male",35,"hinduism","nothing",39,"BI2A00008","definitely no",-3,2303,"india"
"88","hungry","A2LWK1B4X25M5Q","grad_some","yes_multiple","male",35,"hinduism","nothing",40,"BI2A00003","definitely no",-3,823,"india"
"89","hungry","A2LWK1B4X25M5Q","grad_some","yes_multiple","male",35,"hinduism","nothing",41,"BI2A00026","probably no",-2,1335,"india"
"90","hungry","A2LWK1B4X25M5Q","grad_some","yes_multiple","male",35,"hinduism","nothing",42,"BI2A00044","definitely no",-3,1218,"india"
"91","hungry","A2LWK1B4X25M5Q","grad_some","yes_multiple","male",35,"hinduism","nothing",43,"BI2A00037","definitely no",-3,1666,"india"
"92","hungry","A2LWK1B4X25M5Q","grad_some","yes_multiple","male",35,"hinduism","nothing",44,"BI2A00035","probably no",-2,943,"india"
"93","hungry","A2LWK1B4X25M5Q","grad_some","yes_multiple","male",35,"hinduism","nothing",45,"BI2A00012","definitely no",-3,1883,"india"
"94","hungry","A2LWK1B4X25M5Q","grad_some","yes_multiple","male",35,"hinduism","nothing",46,"BI2A00007","probably no",-2,1845,"india"
"95","hungry","A2LWK1B4X25M5Q","grad_some","yes_multiple","male",35,"hinduism","nothing",47,"BI2A00004","definitely no",-3,926,"india"
"96","hungry","A2LWK1B4X25M5Q","grad_some","yes_multiple","male",35,"hinduism","nothing",48,"BI2A00032","probably no",-2,704,"india"
"97","happy","A2KYUAUPZFQS12","college_bachDegree","no_moderatelywell","male",28,"islam","",1,"BI2A00040","maybe no",-1,21006,"india"
"98","happy","A2KYUAUPZFQS12","college_bachDegree","no_moderatelywell","male",28,"islam","",2,"BI2A00010","probably no",-2,3282,"india"
"99","happy","A2KYUAUPZFQS12","college_bachDegree","no_moderatelywell","male",28,"islam","",3,"BI2A00039","probably no",-2,4828,"india"
"100","happy","A2KYUAUPZFQS12","college_bachDegree","no_moderatelywell","male",28,"islam","",4,"BI2A00035","probably no",-2,7938,"india"
"101","happy","A2KYUAUPZFQS12","college_bachDegree","no_moderatelywell","male",28,"islam","",5,"BI2A00012","definitely no",-3,2942,"india"
"102","happy","A2KYUAUPZFQS12","college_bachDegree","no_moderatelywell","male",28,"islam","",6,"BI2A00047","definitely no",-3,1438,"india"
"103","happy","A2KYUAUPZFQS12","college_bachDegree","no_moderatelywell","male",28,"islam","",7,"BI2A00003","definitely no",-3,1339,"india"
"104","happy","A2KYUAUPZFQS12","college_bachDegree","no_moderatelywell","male",28,"islam","",8,"BI2A00027","definitely no",-3,1220,"india"
"105","happy","A2KYUAUPZFQS12","college_bachDegree","no_moderatelywell","male",28,"islam","",9,"BI2A00046","definitely no",-3,1515,"india"
"106","happy","A2KYUAUPZFQS12","college_bachDegree","no_moderatelywell","male",28,"islam","",10,"BI2A00002","definitely no",-3,1421,"india"
"107","happy","A2KYUAUPZFQS12","college_bachDegree","no_moderatelywell","male",28,"islam","",11,"BI2A00031","definitely no",-3,4327,"india"
"108","happy","A2KYUAUPZFQS12","college_bachDegree","no_moderatelywell","male",28,"islam","",12,"BI2A00014","definitely no",-3,1074,"india"
"109","happy","A2KYUAUPZFQS12","college_bachDegree","no_moderatelywell","male",28,"islam","",13,"BI2A00019","definitely no",-3,6344,"india"
"110","happy","A2KYUAUPZFQS12","college_bachDegree","no_moderatelywell","male",28,"islam","",14,"BI2A00004","definitely no",-3,1075,"india"
"111","happy","A2KYUAUPZFQS12","college_bachDegree","no_moderatelywell","male",28,"islam","",15,"BI2A00042","definitely no",-3,1228,"india"
"112","happy","A2KYUAUPZFQS12","college_bachDegree","no_moderatelywell","male",28,"islam","",16,"BI2A00015","definitely no",-3,1061,"india"
"113","happy","A2KYUAUPZFQS12","college_bachDegree","no_moderatelywell","male",28,"islam","",17,"BI2A00001","maybe yes",1,7647,"india"
"114","happy","A2KYUAUPZFQS12","college_bachDegree","no_moderatelywell","male",28,"islam","",18,"BI2A00011","maybe yes",1,9421,"india"
"115","happy","A2KYUAUPZFQS12","college_bachDegree","no_moderatelywell","male",28,"islam","",19,"BI2A00036","maybe no",-1,3338,"india"
"116","happy","A2KYUAUPZFQS12","college_bachDegree","no_moderatelywell","male",28,"islam","",20,"BI2A00022","probably no",-2,3283,"india"
"117","happy","A2KYUAUPZFQS12","college_bachDegree","no_moderatelywell","male",28,"islam","",21,"BI2A00041","maybe yes",1,10749,"india"
"118","happy","A2KYUAUPZFQS12","college_bachDegree","no_moderatelywell","male",28,"islam","",22,"BI2A00021","probably no",-2,2012,"india"
"119","happy","A2KYUAUPZFQS12","college_bachDegree","no_moderatelywell","male",28,"islam","",23,"BI2A00044","probably no",-2,1033,"india"
"120","happy","A2KYUAUPZFQS12","college_bachDegree","no_moderatelywell","male",28,"islam","",24,"BI2A00013","probably no",-2,2151,"india"
"121","happy","A2KYUAUPZFQS12","college_bachDegree","no_moderatelywell","male",28,"islam","",25,"BI2A00025","maybe no",-1,3914,"india"
"122","happy","A2KYUAUPZFQS12","college_bachDegree","no_moderatelywell","male",28,"islam","",26,"BI2A00018","probably no",-2,2787,"india"
"123","happy","A2KYUAUPZFQS12","college_bachDegree","no_moderatelywell","male",28,"islam","",27,"BI2A00029","probably no",-2,2331,"india"
"124","happy","A2KYUAUPZFQS12","college_bachDegree","no_moderatelywell","male",28,"islam","",28,"BI2A00016","probably no",-2,1196,"india"
"125","happy","A2KYUAUPZFQS12","college_bachDegree","no_moderatelywell","male",28,"islam","",29,"BI2A00030","probably no",-2,1692,"india"
"126","happy","A2KYUAUPZFQS12","college_bachDegree","no_moderatelywell","male",28,"islam","",30,"BI2A00017","probably no",-2,1844,"india"
"127","happy","A2KYUAUPZFQS12","college_bachDegree","no_moderatelywell","male",28,"islam","",31,"BI2A00023","probably no",-2,1204,"india"
"128","happy","A2KYUAUPZFQS12","college_bachDegree","no_moderatelywell","male",28,"islam","",32,"BI2A00005","probably no",-2,956,"india"
"129","happy","A2KYUAUPZFQS12","college_bachDegree","no_moderatelywell","male",28,"islam","",33,"BI2A00020","probably no",-2,1340,"india"
"130","happy","A2KYUAUPZFQS12","college_bachDegree","no_moderatelywell","male",28,"islam","",34,"BI2A00008","probably no",-2,1058,"india"
"131","happy","A2KYUAUPZFQS12","college_bachDegree","no_moderatelywell","male",28,"islam","",35,"BI2A00024","probably no",-2,5490,"india"
"132","happy","A2KYUAUPZFQS12","college_bachDegree","no_moderatelywell","male",28,"islam","",36,"BI2A00007","probably no",-2,772,"india"
"133","happy","A2KYUAUPZFQS12","college_bachDegree","no_moderatelywell","male",28,"islam","",37,"BI2A00048","probably no",-2,1234,"india"
"134","happy","A2KYUAUPZFQS12","college_bachDegree","no_moderatelywell","male",28,"islam","",38,"BI2A00032","probably no",-2,1244,"india"
"135","happy","A2KYUAUPZFQS12","college_bachDegree","no_moderatelywell","male",28,"islam","",39,"BI2A00045","probably yes",2,5870,"india"
"136","happy","A2KYUAUPZFQS12","college_bachDegree","no_moderatelywell","male",28,"islam","",40,"BI2A00009","probably no",-2,2664,"india"
"137","happy","A2KYUAUPZFQS12","college_bachDegree","no_moderatelywell","male",28,"islam","",41,"BI2A00033","probably no",-2,11,"india"
"138","happy","A2KYUAUPZFQS12","college_bachDegree","no_moderatelywell","male",28,"islam","",42,"BI2A00043","maybe yes",1,4034,"india"
"139","happy","A2KYUAUPZFQS12","college_bachDegree","no_moderatelywell","male",28,"islam","",43,"BI2A00026","probably no",-2,1428,"india"
"140","happy","A2KYUAUPZFQS12","college_bachDegree","no_moderatelywell","male",28,"islam","",44,"BI2A00028","probably no",-2,596,"india"
"141","happy","A2KYUAUPZFQS12","college_bachDegree","no_moderatelywell","male",28,"islam","",45,"BI2A00038","probably no",-2,621,"india"
"142","happy","A2KYUAUPZFQS12","college_bachDegree","no_moderatelywell","male",28,"islam","",46,"BI2A00037","probably no",-2,836,"india"
"143","happy","A2KYUAUPZFQS12","college_bachDegree","no_moderatelywell","male",28,"islam","",47,"BI2A00006","probably no",-2,2877,"india"
"144","happy","A2KYUAUPZFQS12","college_bachDegree","no_moderatelywell","male",28,"islam","",48,"BI2A00034","probably no",-2,1807,"india"
"145","happy","A1CNEUGI7LWLR7","college_bachDegree","no","male",26,"hinduism","no",1,"BI2A00033","probably no",-2,9899,"india"
"146","happy","A1CNEUGI7LWLR7","college_bachDegree","no","male",26,"hinduism","no",2,"BI2A00041","probably no",-2,2179,"india"
"147","happy","A1CNEUGI7LWLR7","college_bachDegree","no","male",26,"hinduism","no",3,"BI2A00015","definitely no",-3,1428,"india"
"148","happy","A1CNEUGI7LWLR7","college_bachDegree","no","male",26,"hinduism","no",4,"BI2A00008","definitely no",-3,1392,"india"
"149","happy","A1CNEUGI7LWLR7","college_bachDegree","no","male",26,"hinduism","no",5,"BI2A00016","equally yes/no",0,2480,"india"
"150","happy","A1CNEUGI7LWLR7","college_bachDegree","no","male",26,"hinduism","no",6,"BI2A00031","maybe yes",1,1666,"india"
"151","happy","A1CNEUGI7LWLR7","college_bachDegree","no","male",26,"hinduism","no",7,"BI2A00003","probably no",-2,1743,"india"
"152","happy","A1CNEUGI7LWLR7","college_bachDegree","no","male",26,"hinduism","no",8,"BI2A00005","definitely no",-3,1074,"india"
"153","happy","A1CNEUGI7LWLR7","college_bachDegree","no","male",26,"hinduism","no",9,"BI2A00038","equally yes/no",0,2209,"india"
"154","happy","A1CNEUGI7LWLR7","college_bachDegree","no","male",26,"hinduism","no",10,"BI2A00046","probably yes",2,2561,"india"
"155","happy","A1CNEUGI7LWLR7","college_bachDegree","no","male",26,"hinduism","no",11,"BI2A00001","probably no",-2,1479,"india"
"156","happy","A1CNEUGI7LWLR7","college_bachDegree","no","male",26,"hinduism","no",12,"BI2A00011","maybe yes",1,1962,"india"
"157","happy","A1CNEUGI7LWLR7","college_bachDegree","no","male",26,"hinduism","no",13,"BI2A00044","maybe yes",1,1484,"india"
"158","happy","A1CNEUGI7LWLR7","college_bachDegree","no","male",26,"hinduism","no",14,"BI2A00032","equally yes/no",0,1784,"india"
"159","happy","A1CNEUGI7LWLR7","college_bachDegree","no","male",26,"hinduism","no",15,"BI2A00030","probably yes",2,1569,"india"
"160","happy","A1CNEUGI7LWLR7","college_bachDegree","no","male",26,"hinduism","no",16,"BI2A00043","definitely yes",3,1238,"india"
"161","happy","A1CNEUGI7LWLR7","college_bachDegree","no","male",26,"hinduism","no",17,"BI2A00047","probably yes",2,2201,"india"
"162","happy","A1CNEUGI7LWLR7","college_bachDegree","no","male",26,"hinduism","no",18,"BI2A00020","probably no",-2,1577,"india"
"163","happy","A1CNEUGI7LWLR7","college_bachDegree","no","male",26,"hinduism","no",19,"BI2A00024","equally yes/no",0,2801,"india"
"164","happy","A1CNEUGI7LWLR7","college_bachDegree","no","male",26,"hinduism","no",20,"BI2A00035","maybe yes",1,1227,"india"
"165","happy","A1CNEUGI7LWLR7","college_bachDegree","no","male",26,"hinduism","no",21,"BI2A00007","maybe yes",1,1228,"india"
"166","happy","A1CNEUGI7LWLR7","college_bachDegree","no","male",26,"hinduism","no",22,"BI2A00037","maybe no",-1,1402,"india"
"167","happy","A1CNEUGI7LWLR7","college_bachDegree","no","male",26,"hinduism","no",23,"BI2A00036","probably no",-2,1410,"india"
"168","happy","A1CNEUGI7LWLR7","college_bachDegree","no","male",26,"hinduism","no",24,"BI2A00019","probably no",-2,1088,"india"
"169","happy","A1CNEUGI7LWLR7","college_bachDegree","no","male",26,"hinduism","no",25,"BI2A00029","probably no",-2,1469,"india"
"170","happy","A1CNEUGI7LWLR7","college_bachDegree","no","male",26,"hinduism","no",26,"BI2A00028","equally yes/no",0,1994,"india"
"171","happy","A1CNEUGI7LWLR7","college_bachDegree","no","male",26,"hinduism","no",27,"BI2A00027","maybe yes",1,1530,"india"
"172","happy","A1CNEUGI7LWLR7","college_bachDegree","no","male",26,"hinduism","no",28,"BI2A00039","probably yes",2,1443,"india"
"173","happy","A1CNEUGI7LWLR7","college_bachDegree","no","male",26,"hinduism","no",29,"BI2A00042","probably yes",2,1720,"india"
"174","happy","A1CNEUGI7LWLR7","college_bachDegree","no","male",26,"hinduism","no",30,"BI2A00048","probably yes",2,1403,"india"
"175","happy","A1CNEUGI7LWLR7","college_bachDegree","no","male",26,"hinduism","no",31,"BI2A00002","definitely no",-3,2108,"india"
"176","happy","A1CNEUGI7LWLR7","college_bachDegree","no","male",26,"hinduism","no",32,"BI2A00025","definitely no",-3,1398,"india"
"177","happy","A1CNEUGI7LWLR7","college_bachDegree","no","male",26,"hinduism","no",33,"BI2A00009","probably yes",2,1760,"india"
"178","happy","A1CNEUGI7LWLR7","college_bachDegree","no","male",26,"hinduism","no",34,"BI2A00012","probably no",-2,1857,"india"
"179","happy","A1CNEUGI7LWLR7","college_bachDegree","no","male",26,"hinduism","no",35,"BI2A00026","definitely no",-3,1545,"india"
"180","happy","A1CNEUGI7LWLR7","college_bachDegree","no","male",26,"hinduism","no",36,"BI2A00022","equally yes/no",0,1696,"india"
"181","happy","A1CNEUGI7LWLR7","college_bachDegree","no","male",26,"hinduism","no",37,"BI2A00017","equally yes/no",0,1121,"india"
"182","happy","A1CNEUGI7LWLR7","college_bachDegree","no","male",26,"hinduism","no",38,"BI2A00006","probably yes",2,2577,"india"
"183","happy","A1CNEUGI7LWLR7","college_bachDegree","no","male",26,"hinduism","no",39,"BI2A00013","maybe no",-1,2736,"india"
"184","happy","A1CNEUGI7LWLR7","college_bachDegree","no","male",26,"hinduism","no",40,"BI2A00004","probably no",-2,1570,"india"
"185","happy","A1CNEUGI7LWLR7","college_bachDegree","no","male",26,"hinduism","no",41,"BI2A00040","maybe yes",1,1992,"india"
"186","happy","A1CNEUGI7LWLR7","college_bachDegree","no","male",26,"hinduism","no",42,"BI2A00021","maybe yes",1,1641,"india"
"187","happy","A1CNEUGI7LWLR7","college_bachDegree","no","male",26,"hinduism","no",43,"BI2A00010","maybe no",-1,1700,"india"
"188","happy","A1CNEUGI7LWLR7","college_bachDegree","no","male",26,"hinduism","no",44,"BI2A00045","probably yes",2,1390,"india"
"189","happy","A1CNEUGI7LWLR7","college_bachDegree","no","male",26,"hinduism","no",45,"BI2A00034","equally yes/no",0,2490,"india"
"190","happy","A1CNEUGI7LWLR7","college_bachDegree","no","male",26,"hinduism","no",46,"BI2A00018","equally yes/no",0,1450,"india"
"191","happy","A1CNEUGI7LWLR7","college_bachDegree","no","male",26,"hinduism","no",47,"BI2A00023","probably no",-2,1646,"india"
"192","happy","A1CNEUGI7LWLR7","college_bachDegree","no","male",26,"hinduism","no",48,"BI2A00014","maybe no",-1,1593,"india"
"193","feelings","A1JF9ZNXWK5QZU","college_bachDegree","no","female",31,"hinduism","Actually I like your work. I so glad to work with you. Keep it up. Lord bless you.",1,"BI2A00008","equally yes/no",0,15001,"india"
"194","feelings","A1JF9ZNXWK5QZU","college_bachDegree","no","female",31,"hinduism","Actually I like your work. I so glad to work with you. Keep it up. Lord bless you.",2,"BI2A00014","maybe yes",1,8912,"india"
"195","feelings","A1JF9ZNXWK5QZU","college_bachDegree","no","female",31,"hinduism","Actually I like your work. I so glad to work with you. Keep it up. Lord bless you.",3,"BI2A00003","probably yes",2,4376,"india"
"196","feelings","A1JF9ZNXWK5QZU","college_bachDegree","no","female",31,"hinduism","Actually I like your work. I so glad to work with you. Keep it up. Lord bless you.",4,"BI2A00004","definitely yes",3,1922,"india"
"197","feelings","A1JF9ZNXWK5QZU","college_bachDegree","no","female",31,"hinduism","Actually I like your work. I so glad to work with you. Keep it up. Lord bless you.",5,"BI2A00025","definitely yes",3,3046,"india"
"198","feelings","A1JF9ZNXWK5QZU","college_bachDegree","no","female",31,"hinduism","Actually I like your work. I so glad to work with you. Keep it up. Lord bless you.",6,"BI2A00027","maybe no",-1,2114,"india"
"199","feelings","A1JF9ZNXWK5QZU","college_bachDegree","no","female",31,"hinduism","Actually I like your work. I so glad to work with you. Keep it up. Lord bless you.",7,"BI2A00046","equally yes/no",0,6183,"india"
"200","feelings","A1JF9ZNXWK5QZU","college_bachDegree","no","female",31,"hinduism","Actually I like your work. I so glad to work with you. Keep it up. Lord bless you.",8,"BI2A00001","definitely yes",3,2592,"india"
"201","feelings","A1JF9ZNXWK5QZU","college_bachDegree","no","female",31,"hinduism","Actually I like your work. I so glad to work with you. Keep it up. Lord bless you.",9,"BI2A00020","definitely yes",3,1100,"india"
"202","feelings","A1JF9ZNXWK5QZU","college_bachDegree","no","female",31,"hinduism","Actually I like your work. I so glad to work with you. Keep it up. Lord bless you.",10,"BI2A00037","maybe no",-1,3734,"india"
"203","feelings","A1JF9ZNXWK5QZU","college_bachDegree","no","female",31,"hinduism","Actually I like your work. I so glad to work with you. Keep it up. Lord bless you.",11,"BI2A00024","definitely no",-3,6924,"india"
"204","feelings","A1JF9ZNXWK5QZU","college_bachDegree","no","female",31,"hinduism","Actually I like your work. I so glad to work with you. Keep it up. Lord bless you.",12,"BI2A00007","definitely yes",3,2957,"india"
"205","feelings","A1JF9ZNXWK5QZU","college_bachDegree","no","female",31,"hinduism","Actually I like your work. I so glad to work with you. Keep it up. Lord bless you.",13,"BI2A00010","equally yes/no",0,2642,"india"
"206","feelings","A1JF9ZNXWK5QZU","college_bachDegree","no","female",31,"hinduism","Actually I like your work. I so glad to work with you. Keep it up. Lord bless you.",14,"BI2A00011","equally yes/no",0,4307,"india"
"207","feelings","A1JF9ZNXWK5QZU","college_bachDegree","no","female",31,"hinduism","Actually I like your work. I so glad to work with you. Keep it up. Lord bless you.",15,"BI2A00019","maybe yes",1,2817,"india"
"208","feelings","A1JF9ZNXWK5QZU","college_bachDegree","no","female",31,"hinduism","Actually I like your work. I so glad to work with you. Keep it up. Lord bless you.",16,"BI2A00022","probably no",-2,4117,"india"
"209","feelings","A1JF9ZNXWK5QZU","college_bachDegree","no","female",31,"hinduism","Actually I like your work. I so glad to work with you. Keep it up. Lord bless you.",17,"BI2A00044","probably no",-2,2475,"india"
"210","feelings","A1JF9ZNXWK5QZU","college_bachDegree","no","female",31,"hinduism","Actually I like your work. I so glad to work with you. Keep it up. Lord bless you.",18,"BI2A00009","definitely yes",3,2879,"india"
"211","feelings","A1JF9ZNXWK5QZU","college_bachDegree","no","female",31,"hinduism","Actually I like your work. I so glad to work with you. Keep it up. Lord bless you.",19,"BI2A00012","maybe yes",1,2196,"india"
"212","feelings","A1JF9ZNXWK5QZU","college_bachDegree","no","female",31,"hinduism","Actually I like your work. I so glad to work with you. Keep it up. Lord bless you.",20,"BI2A00026","maybe yes",1,1290,"india"
"213","feelings","A1JF9ZNXWK5QZU","college_bachDegree","no","female",31,"hinduism","Actually I like your work. I so glad to work with you. Keep it up. Lord bless you.",21,"BI2A00023","maybe yes",1,2885,"india"
"214","feelings","A1JF9ZNXWK5QZU","college_bachDegree","no","female",31,"hinduism","Actually I like your work. I so glad to work with you. Keep it up. Lord bless you.",22,"BI2A00032","maybe no",-1,2772,"india"
"215","feelings","A1JF9ZNXWK5QZU","college_bachDegree","no","female",31,"hinduism","Actually I like your work. I so glad to work with you. Keep it up. Lord bless you.",23,"BI2A00043","equally yes/no",0,2251,"india"
"216","feelings","A1JF9ZNXWK5QZU","college_bachDegree","no","female",31,"hinduism","Actually I like your work. I so glad to work with you. Keep it up. Lord bless you.",24,"BI2A00015","probably yes",2,2981,"india"
"217","feelings","A1JF9ZNXWK5QZU","college_bachDegree","no","female",31,"hinduism","Actually I like your work. I so glad to work with you. Keep it up. Lord bless you.",25,"BI2A00040","maybe yes",1,1629,"india"
"218","feelings","A1JF9ZNXWK5QZU","college_bachDegree","no","female",31,"hinduism","Actually I like your work. I so glad to work with you. Keep it up. Lord bless you.",26,"BI2A00047","probably yes",2,1319,"india"
"219","feelings","A1JF9ZNXWK5QZU","college_bachDegree","no","female",31,"hinduism","Actually I like your work. I so glad to work with you. Keep it up. Lord bless you.",27,"BI2A00017","equally yes/no",0,4380,"india"
"220","feelings","A1JF9ZNXWK5QZU","college_bachDegree","no","female",31,"hinduism","Actually I like your work. I so glad to work with you. Keep it up. Lord bless you.",28,"BI2A00038","equally yes/no",0,3558,"india"
"221","feelings","A1JF9ZNXWK5QZU","college_bachDegree","no","female",31,"hinduism","Actually I like your work. I so glad to work with you. Keep it up. Lord bless you.",29,"BI2A00045","probably no",-2,6678,"india"
"222","feelings","A1JF9ZNXWK5QZU","college_bachDegree","no","female",31,"hinduism","Actually I like your work. I so glad to work with you. Keep it up. Lord bless you.",30,"BI2A00036","equally yes/no",0,2029,"india"
"223","feelings","A1JF9ZNXWK5QZU","college_bachDegree","no","female",31,"hinduism","Actually I like your work. I so glad to work with you. Keep it up. Lord bless you.",31,"BI2A00021","equally yes/no",0,1740,"india"
"224","feelings","A1JF9ZNXWK5QZU","college_bachDegree","no","female",31,"hinduism","Actually I like your work. I so glad to work with you. Keep it up. Lord bless you.",32,"BI2A00033","maybe no",-1,2559,"india"
"225","feelings","A1JF9ZNXWK5QZU","college_bachDegree","no","female",31,"hinduism","Actually I like your work. I so glad to work with you. Keep it up. Lord bless you.",33,"BI2A00016","definitely yes",3,1841,"india"
"226","feelings","A1JF9ZNXWK5QZU","college_bachDegree","no","female",31,"hinduism","Actually I like your work. I so glad to work with you. Keep it up. Lord bless you.",34,"BI2A00006","definitely yes",3,1632,"india"
"227","feelings","A1JF9ZNXWK5QZU","college_bachDegree","no","female",31,"hinduism","Actually I like your work. I so glad to work with you. Keep it up. Lord bless you.",35,"BI2A00018","equally yes/no",0,3298,"india"
"228","feelings","A1JF9ZNXWK5QZU","college_bachDegree","no","female",31,"hinduism","Actually I like your work. I so glad to work with you. Keep it up. Lord bless you.",36,"BI2A00029","definitely yes",3,1562,"india"
"229","feelings","A1JF9ZNXWK5QZU","college_bachDegree","no","female",31,"hinduism","Actually I like your work. I so glad to work with you. Keep it up. Lord bless you.",37,"BI2A00031","definitely yes",3,1158,"india"
"230","feelings","A1JF9ZNXWK5QZU","college_bachDegree","no","female",31,"hinduism","Actually I like your work. I so glad to work with you. Keep it up. Lord bless you.",38,"BI2A00002","definitely yes",3,4869,"india"
"231","feelings","A1JF9ZNXWK5QZU","college_bachDegree","no","female",31,"hinduism","Actually I like your work. I so glad to work with you. Keep it up. Lord bless you.",39,"BI2A00039","definitely no",-3,1992,"india"
"232","feelings","A1JF9ZNXWK5QZU","college_bachDegree","no","female",31,"hinduism","Actually I like your work. I so glad to work with you. Keep it up. Lord bless you.",40,"BI2A00013","definitely yes",3,1928,"india"
"233","feelings","A1JF9ZNXWK5QZU","college_bachDegree","no","female",31,"hinduism","Actually I like your work. I so glad to work with you. Keep it up. Lord bless you.",41,"BI2A00028","equally yes/no",0,2117,"india"
"234","feelings","A1JF9ZNXWK5QZU","college_bachDegree","no","female",31,"hinduism","Actually I like your work. I so glad to work with you. Keep it up. Lord bless you.",42,"BI2A00005","probably yes",2,1605,"india"
"235","feelings","A1JF9ZNXWK5QZU","college_bachDegree","no","female",31,"hinduism","Actually I like your work. I so glad to work with you. Keep it up. Lord bless you.",43,"BI2A00041","equally yes/no",0,2667,"india"
"236","feelings","A1JF9ZNXWK5QZU","college_bachDegree","no","female",31,"hinduism","Actually I like your work. I so glad to work with you. Keep it up. Lord bless you.",44,"BI2A00035","equally yes/no",0,2825,"india"
"237","feelings","A1JF9ZNXWK5QZU","college_bachDegree","no","female",31,"hinduism","Actually I like your work. I so glad to work with you. Keep it up. Lord bless you.",45,"BI2A00042","definitely no",-3,2992,"india"
"238","feelings","A1JF9ZNXWK5QZU","college_bachDegree","no","female",31,"hinduism","Actually I like your work. I so glad to work with you. Keep it up. Lord bless you.",46,"BI2A00030","maybe no",-1,3501,"india"
"239","feelings","A1JF9ZNXWK5QZU","college_bachDegree","no","female",31,"hinduism","Actually I like your work. I so glad to work with you. Keep it up. Lord bless you.",47,"BI2A00048","equally yes/no",0,1500,"india"
"240","feelings","A1JF9ZNXWK5QZU","college_bachDegree","no","female",31,"hinduism","Actually I like your work. I so glad to work with you. Keep it up. Lord bless you.",48,"BI2A00034","maybe no",-1,3559,"india"
"241","think","A1MQS6VU9GP4ZE","grad_degree","yes_multiple","male",28,"christianity_catholic","",1,"BI2A00038","definitely no",-3,17223,"india"
"242","think","A1MQS6VU9GP4ZE","grad_degree","yes_multiple","male",28,"christianity_catholic","",2,"BI2A00027","definitely no",-3,2423,"india"
"243","think","A1MQS6VU9GP4ZE","grad_degree","yes_multiple","male",28,"christianity_catholic","",3,"BI2A00042","definitely no",-3,5793,"india"
"244","think","A1MQS6VU9GP4ZE","grad_degree","yes_multiple","male",28,"christianity_catholic","",4,"BI2A00036","maybe no",-1,1747,"india"
"245","think","A1MQS6VU9GP4ZE","grad_degree","yes_multiple","male",28,"christianity_catholic","",5,"BI2A00044","probably no",-2,2771,"india"
"246","think","A1MQS6VU9GP4ZE","grad_degree","yes_multiple","male",28,"christianity_catholic","",6,"BI2A00045","definitely no",-3,995,"india"
"247","think","A1MQS6VU9GP4ZE","grad_degree","yes_multiple","male",28,"christianity_catholic","",7,"BI2A00020","definitely no",-3,2840,"india"
"248","think","A1MQS6VU9GP4ZE","grad_degree","yes_multiple","male",28,"christianity_catholic","",8,"BI2A00041","definitely no",-3,2133,"india"
"249","think","A1MQS6VU9GP4ZE","grad_degree","yes_multiple","male",28,"christianity_catholic","",9,"BI2A00023","definitely no",-3,4596,"india"
"250","think","A1MQS6VU9GP4ZE","grad_degree","yes_multiple","male",28,"christianity_catholic","",10,"BI2A00003","definitely no",-3,3247,"india"
"251","think","A1MQS6VU9GP4ZE","grad_degree","yes_multiple","male",28,"christianity_catholic","",11,"BI2A00017","definitely no",-3,2406,"india"
"252","think","A1MQS6VU9GP4ZE","grad_degree","yes_multiple","male",28,"christianity_catholic","",12,"BI2A00043","definitely no",-3,2584,"india"
"253","think","A1MQS6VU9GP4ZE","grad_degree","yes_multiple","male",28,"christianity_catholic","",13,"BI2A00024","definitely no",-3,3026,"india"
"254","think","A1MQS6VU9GP4ZE","grad_degree","yes_multiple","male",28,"christianity_catholic","",14,"BI2A00040","definitely no",-3,6678,"india"
"255","think","A1MQS6VU9GP4ZE","grad_degree","yes_multiple","male",28,"christianity_catholic","",15,"BI2A00039","probably no",-2,1231,"india"
"256","think","A1MQS6VU9GP4ZE","grad_degree","yes_multiple","male",28,"christianity_catholic","",16,"BI2A00005","definitely yes",3,2313,"india"
"257","think","A1MQS6VU9GP4ZE","grad_degree","yes_multiple","male",28,"christianity_catholic","",17,"BI2A00046","definitely no",-3,1593,"india"
"258","think","A1MQS6VU9GP4ZE","grad_degree","yes_multiple","male",28,"christianity_catholic","",18,"BI2A00047","definitely no",-3,2535,"india"
"259","think","A1MQS6VU9GP4ZE","grad_degree","yes_multiple","male",28,"christianity_catholic","",19,"BI2A00019","probably yes",2,4976,"india"
"260","think","A1MQS6VU9GP4ZE","grad_degree","yes_multiple","male",28,"christianity_catholic","",20,"BI2A00001","definitely yes",3,2056,"india"
"261","think","A1MQS6VU9GP4ZE","grad_degree","yes_multiple","male",28,"christianity_catholic","",21,"BI2A00033","definitely no",-3,1448,"india"
"262","think","A1MQS6VU9GP4ZE","grad_degree","yes_multiple","male",28,"christianity_catholic","",22,"BI2A00035","definitely no",-3,3336,"india"
"263","think","A1MQS6VU9GP4ZE","grad_degree","yes_multiple","male",28,"christianity_catholic","",23,"BI2A00025","probably yes",2,3366,"india"
"264","think","A1MQS6VU9GP4ZE","grad_degree","yes_multiple","male",28,"christianity_catholic","",24,"BI2A00031","definitely no",-3,4051,"india"
"265","think","A1MQS6VU9GP4ZE","grad_degree","yes_multiple","male",28,"christianity_catholic","",25,"BI2A00007","definitely yes",3,4133,"india"
"266","think","A1MQS6VU9GP4ZE","grad_degree","yes_multiple","male",28,"christianity_catholic","",26,"BI2A00016","maybe yes",1,4165,"india"
"267","think","A1MQS6VU9GP4ZE","grad_degree","yes_multiple","male",28,"christianity_catholic","",27,"BI2A00037","equally yes/no",0,1730,"india"
"268","think","A1MQS6VU9GP4ZE","grad_degree","yes_multiple","male",28,"christianity_catholic","",28,"BI2A00026","maybe yes",1,2683,"india"
"269","think","A1MQS6VU9GP4ZE","grad_degree","yes_multiple","male",28,"christianity_catholic","",29,"BI2A00028","probably yes",2,1392,"india"
"270","think","A1MQS6VU9GP4ZE","grad_degree","yes_multiple","male",28,"christianity_catholic","",30,"BI2A00008","probably yes",2,3925,"india"
"271","think","A1MQS6VU9GP4ZE","grad_degree","yes_multiple","male",28,"christianity_catholic","",31,"BI2A00030","probably yes",2,3747,"india"
"272","think","A1MQS6VU9GP4ZE","grad_degree","yes_multiple","male",28,"christianity_catholic","",32,"BI2A00015","probably yes",2,4158,"india"
"273","think","A1MQS6VU9GP4ZE","grad_degree","yes_multiple","male",28,"christianity_catholic","",33,"BI2A00014","probably yes",2,3678,"india"
"274","think","A1MQS6VU9GP4ZE","grad_degree","yes_multiple","male",28,"christianity_catholic","",34,"BI2A00006","probably yes",2,1096,"india"
"275","think","A1MQS6VU9GP4ZE","grad_degree","yes_multiple","male",28,"christianity_catholic","",35,"BI2A00010","probably yes",2,1057,"india"
"276","think","A1MQS6VU9GP4ZE","grad_degree","yes_multiple","male",28,"christianity_catholic","",36,"BI2A00009","probably yes",2,1085,"india"
"277","think","A1MQS6VU9GP4ZE","grad_degree","yes_multiple","male",28,"christianity_catholic","",37,"BI2A00021","definitely no",-3,1630,"india"
"278","think","A1MQS6VU9GP4ZE","grad_degree","yes_multiple","male",28,"christianity_catholic","",38,"BI2A00002","definitely yes",3,3032,"india"
"279","think","A1MQS6VU9GP4ZE","grad_degree","yes_multiple","male",28,"christianity_catholic","",39,"BI2A00034","definitely yes",3,1122,"india"
"280","think","A1MQS6VU9GP4ZE","grad_degree","yes_multiple","male",28,"christianity_catholic","",40,"BI2A00013","definitely yes",3,3423,"india"
"281","think","A1MQS6VU9GP4ZE","grad_degree","yes_multiple","male",28,"christianity_catholic","",41,"BI2A00048","definitely no",-3,1745,"india"
"282","think","A1MQS6VU9GP4ZE","grad_degree","yes_multiple","male",28,"christianity_catholic","",42,"BI2A00018","probably no",-2,3576,"india"
"283","think","A1MQS6VU9GP4ZE","grad_degree","yes_multiple","male",28,"christianity_catholic","",43,"BI2A00029","maybe yes",1,6960,"india"
"284","think","A1MQS6VU9GP4ZE","grad_degree","yes_multiple","male",28,"christianity_catholic","",44,"BI2A00011","definitely yes",3,6409,"india"
"285","think","A1MQS6VU9GP4ZE","grad_degree","yes_multiple","male",28,"christianity_catholic","",45,"BI2A00004","definitely yes",3,3586,"india"
"286","think","A1MQS6VU9GP4ZE","grad_degree","yes_multiple","male",28,"christianity_catholic","",46,"BI2A00022","probably yes",2,3228,"india"
"287","think","A1MQS6VU9GP4ZE","grad_degree","yes_multiple","male",28,"christianity_catholic","",47,"BI2A00032","definitely no",-3,3456,"india"
"288","think","A1MQS6VU9GP4ZE","grad_degree","yes_multiple","male",28,"christianity_catholic","",48,"BI2A00012","maybe yes",1,2953,"india"
"289","think","APMEOBFFLFRLX","grad_some","no_fluent","male",32,"christianity_catholic","",1,"BI2A00041","definitely no",-3,137306,"india"
"290","think","APMEOBFFLFRLX","grad_some","no_fluent","male",32,"christianity_catholic","",2,"BI2A00016","definitely no",-3,1075,"india"
"291","think","APMEOBFFLFRLX","grad_some","no_fluent","male",32,"christianity_catholic","",3,"BI2A00004","definitely no",-3,1474,"india"
"292","think","APMEOBFFLFRLX","grad_some","no_fluent","male",32,"christianity_catholic","",4,"BI2A00045","definitely no",-3,71212,"india"
"293","think","APMEOBFFLFRLX","grad_some","no_fluent","male",32,"christianity_catholic","",5,"BI2A00014","definitely no",-3,884,"india"
"294","think","APMEOBFFLFRLX","grad_some","no_fluent","male",32,"christianity_catholic","",6,"BI2A00039","definitely no",-3,827,"india"
"295","think","APMEOBFFLFRLX","grad_some","no_fluent","male",32,"christianity_catholic","",7,"BI2A00011","definitely no",-3,654,"india"
"296","think","APMEOBFFLFRLX","grad_some","no_fluent","male",32,"christianity_catholic","",8,"BI2A00007","definitely no",-3,719,"india"
"297","think","APMEOBFFLFRLX","grad_some","no_fluent","male",32,"christianity_catholic","",9,"BI2A00030","definitely no",-3,836,"india"
"298","think","APMEOBFFLFRLX","grad_some","no_fluent","male",32,"christianity_catholic","",10,"BI2A00038","definitely no",-3,739,"india"
"299","think","APMEOBFFLFRLX","grad_some","no_fluent","male",32,"christianity_catholic","",11,"BI2A00013","definitely no",-3,717,"india"
"300","think","APMEOBFFLFRLX","grad_some","no_fluent","male",32,"christianity_catholic","",12,"BI2A00046","definitely no",-3,667,"india"
"301","think","APMEOBFFLFRLX","grad_some","no_fluent","male",32,"christianity_catholic","",13,"BI2A00033","definitely no",-3,1245,"india"
"302","think","APMEOBFFLFRLX","grad_some","no_fluent","male",32,"christianity_catholic","",14,"BI2A00019","maybe yes",1,8148,"india"
"303","think","APMEOBFFLFRLX","grad_some","no_fluent","male",32,"christianity_catholic","",15,"BI2A00002","equally yes/no",0,2541,"india"
"304","think","APMEOBFFLFRLX","grad_some","no_fluent","male",32,"christianity_catholic","",16,"BI2A00044","maybe no",-1,1638,"india"
"305","think","APMEOBFFLFRLX","grad_some","no_fluent","male",32,"christianity_catholic","",17,"BI2A00017","maybe no",-1,847,"india"
"306","think","APMEOBFFLFRLX","grad_some","no_fluent","male",32,"christianity_catholic","",18,"BI2A00026","maybe no",-1,628,"india"
"307","think","APMEOBFFLFRLX","grad_some","no_fluent","male",32,"christianity_catholic","",19,"BI2A00024","maybe yes",1,2214,"india"
"308","think","APMEOBFFLFRLX","grad_some","no_fluent","male",32,"christianity_catholic","",20,"BI2A00029","probably no",-2,2029,"india"
"309","think","APMEOBFFLFRLX","grad_some","no_fluent","male",32,"christianity_catholic","",21,"BI2A00028","probably no",-2,2190,"india"
"310","think","APMEOBFFLFRLX","grad_some","no_fluent","male",32,"christianity_catholic","",22,"BI2A00008","maybe yes",1,1245,"india"
"311","think","APMEOBFFLFRLX","grad_some","no_fluent","male",32,"christianity_catholic","",23,"BI2A00025","maybe yes",1,691,"india"
"312","think","APMEOBFFLFRLX","grad_some","no_fluent","male",32,"christianity_catholic","",24,"BI2A00005","maybe yes",1,671,"india"
"313","think","APMEOBFFLFRLX","grad_some","no_fluent","male",32,"christianity_catholic","",25,"BI2A00018","maybe yes",1,588,"india"
"314","think","APMEOBFFLFRLX","grad_some","no_fluent","male",32,"christianity_catholic","",26,"BI2A00015","maybe no",-1,1649,"india"
"315","think","APMEOBFFLFRLX","grad_some","no_fluent","male",32,"christianity_catholic","",27,"BI2A00020","maybe yes",1,1594,"india"
"316","think","APMEOBFFLFRLX","grad_some","no_fluent","male",32,"christianity_catholic","",28,"BI2A00031","maybe yes",1,2086,"india"
"317","think","APMEOBFFLFRLX","grad_some","no_fluent","male",32,"christianity_catholic","",29,"BI2A00021","maybe yes",1,3653,"india"
"318","think","APMEOBFFLFRLX","grad_some","no_fluent","male",32,"christianity_catholic","",30,"BI2A00023","maybe yes",1,1133,"india"
"319","think","APMEOBFFLFRLX","grad_some","no_fluent","male",32,"christianity_catholic","",31,"BI2A00047","maybe yes",1,1038,"india"
"320","think","APMEOBFFLFRLX","grad_some","no_fluent","male",32,"christianity_catholic","",32,"BI2A00032","maybe yes",1,711,"india"
"321","think","APMEOBFFLFRLX","grad_some","no_fluent","male",32,"christianity_catholic","",33,"BI2A00022","maybe no",-1,1692,"india"
"322","think","APMEOBFFLFRLX","grad_some","no_fluent","male",32,"christianity_catholic","",34,"BI2A00040","maybe yes",1,1388,"india"
"323","think","APMEOBFFLFRLX","grad_some","no_fluent","male",32,"christianity_catholic","",35,"BI2A00012","maybe yes",1,1015,"india"
"324","think","APMEOBFFLFRLX","grad_some","no_fluent","male",32,"christianity_catholic","",36,"BI2A00027","probably no",-2,2877,"india"
"325","think","APMEOBFFLFRLX","grad_some","no_fluent","male",32,"christianity_catholic","",37,"BI2A00001","probably no",-2,678,"india"
"326","think","APMEOBFFLFRLX","grad_some","no_fluent","male",32,"christianity_catholic","",38,"BI2A00006","probably no",-2,2053,"india"
"327","think","APMEOBFFLFRLX","grad_some","no_fluent","male",32,"christianity_catholic","",39,"BI2A00010","probably no",-2,1470,"india"
"328","think","APMEOBFFLFRLX","grad_some","no_fluent","male",32,"christianity_catholic","",40,"BI2A00034","maybe yes",1,1527,"india"
"329","think","APMEOBFFLFRLX","grad_some","no_fluent","male",32,"christianity_catholic","",41,"BI2A00036","maybe yes",1,855,"india"
"330","think","APMEOBFFLFRLX","grad_some","no_fluent","male",32,"christianity_catholic","",42,"BI2A00037","maybe yes",1,1028,"india"
"331","think","APMEOBFFLFRLX","grad_some","no_fluent","male",32,"christianity_catholic","",43,"BI2A00043","maybe yes",1,694,"india"
"332","think","APMEOBFFLFRLX","grad_some","no_fluent","male",32,"christianity_catholic","",44,"BI2A00009","probably no",-2,2783,"india"
"333","think","APMEOBFFLFRLX","grad_some","no_fluent","male",32,"christianity_catholic","",45,"BI2A00048","maybe yes",1,1416,"india"
"334","think","APMEOBFFLFRLX","grad_some","no_fluent","male",32,"christianity_catholic","",46,"BI2A00003","maybe yes",1,808,"india"
"335","think","APMEOBFFLFRLX","grad_some","no_fluent","male",32,"christianity_catholic","",47,"BI2A00042","probably no",-2,1760,"india"
"336","think","APMEOBFFLFRLX","grad_some","no_fluent","male",32,"christianity_catholic","",48,"BI2A00035","maybe yes",1,1360,"india"
"337","think","A1NQW9H2DW4XDG","college_bachDegree","yes_multiple","female",40,"christianity_catholic","none",1,"BI2A00036","probably no",-2,13502,"india"
"338","think","A1NQW9H2DW4XDG","college_bachDegree","yes_multiple","female",40,"christianity_catholic","none",2,"BI2A00022","probably no",-2,9250,"india"
"339","think","A1NQW9H2DW4XDG","college_bachDegree","yes_multiple","female",40,"christianity_catholic","none",3,"BI2A00024","maybe yes",1,5790,"india"
"340","think","A1NQW9H2DW4XDG","college_bachDegree","yes_multiple","female",40,"christianity_catholic","none",4,"BI2A00007","maybe yes",1,11486,"india"
"341","think","A1NQW9H2DW4XDG","college_bachDegree","yes_multiple","female",40,"christianity_catholic","none",5,"BI2A00037","maybe yes",1,2526,"india"
"342","think","A1NQW9H2DW4XDG","college_bachDegree","yes_multiple","female",40,"christianity_catholic","none",6,"BI2A00010","maybe yes",1,5736,"india"
"343","think","A1NQW9H2DW4XDG","college_bachDegree","yes_multiple","female",40,"christianity_catholic","none",7,"BI2A00016","maybe yes",1,6196,"india"
"344","think","A1NQW9H2DW4XDG","college_bachDegree","yes_multiple","female",40,"christianity_catholic","none",8,"BI2A00040","definitely no",-3,5839,"india"
"345","think","A1NQW9H2DW4XDG","college_bachDegree","yes_multiple","female",40,"christianity_catholic","none",9,"BI2A00029","definitely no",-3,3446,"india"
"346","think","A1NQW9H2DW4XDG","college_bachDegree","yes_multiple","female",40,"christianity_catholic","none",10,"BI2A00005","definitely no",-3,2430,"india"
"347","think","A1NQW9H2DW4XDG","college_bachDegree","yes_multiple","female",40,"christianity_catholic","none",11,"BI2A00043","definitely no",-3,2303,"india"
"348","think","A1NQW9H2DW4XDG","college_bachDegree","yes_multiple","female",40,"christianity_catholic","none",12,"BI2A00042","definitely no",-3,2754,"india"
"349","think","A1NQW9H2DW4XDG","college_bachDegree","yes_multiple","female",40,"christianity_catholic","none",13,"BI2A00004","maybe yes",1,4919,"india"
"350","think","A1NQW9H2DW4XDG","college_bachDegree","yes_multiple","female",40,"christianity_catholic","none",14,"BI2A00017","definitely no",-3,1684,"india"
"351","think","A1NQW9H2DW4XDG","college_bachDegree","yes_multiple","female",40,"christianity_catholic","none",15,"BI2A00028","maybe yes",1,3649,"india"
"352","think","A1NQW9H2DW4XDG","college_bachDegree","yes_multiple","female",40,"christianity_catholic","none",16,"BI2A00044","definitely no",-3,1850,"india"
"353","think","A1NQW9H2DW4XDG","college_bachDegree","yes_multiple","female",40,"christianity_catholic","none",17,"BI2A00032","definitely no",-3,1632,"india"
"354","think","A1NQW9H2DW4XDG","college_bachDegree","yes_multiple","female",40,"christianity_catholic","none",18,"BI2A00011","probably no",-2,5135,"india"
"355","think","A1NQW9H2DW4XDG","college_bachDegree","yes_multiple","female",40,"christianity_catholic","none",19,"BI2A00003","probably no",-2,2483,"india"
"356","think","A1NQW9H2DW4XDG","college_bachDegree","yes_multiple","female",40,"christianity_catholic","none",20,"BI2A00038","definitely no",-3,2784,"india"
"357","think","A1NQW9H2DW4XDG","college_bachDegree","yes_multiple","female",40,"christianity_catholic","none",21,"BI2A00041","definitely no",-3,3068,"india"
"358","think","A1NQW9H2DW4XDG","college_bachDegree","yes_multiple","female",40,"christianity_catholic","none",22,"BI2A00015","maybe no",-1,2649,"india"
"359","think","A1NQW9H2DW4XDG","college_bachDegree","yes_multiple","female",40,"christianity_catholic","none",23,"BI2A00039","definitely no",-3,2098,"india"
"360","think","A1NQW9H2DW4XDG","college_bachDegree","yes_multiple","female",40,"christianity_catholic","none",24,"BI2A00045","definitely no",-3,2520,"india"
"361","think","A1NQW9H2DW4XDG","college_bachDegree","yes_multiple","female",40,"christianity_catholic","none",25,"BI2A00033","definitely no",-3,2613,"india"
"362","think","A1NQW9H2DW4XDG","college_bachDegree","yes_multiple","female",40,"christianity_catholic","none",26,"BI2A00021","definitely no",-3,1948,"india"
"363","think","A1NQW9H2DW4XDG","college_bachDegree","yes_multiple","female",40,"christianity_catholic","none",27,"BI2A00002","maybe no",-1,3286,"india"
"364","think","A1NQW9H2DW4XDG","college_bachDegree","yes_multiple","female",40,"christianity_catholic","none",28,"BI2A00014","maybe no",-1,2034,"india"
"365","think","A1NQW9H2DW4XDG","college_bachDegree","yes_multiple","female",40,"christianity_catholic","none",29,"BI2A00023","definitely no",-3,2232,"india"
"366","think","A1NQW9H2DW4XDG","college_bachDegree","yes_multiple","female",40,"christianity_catholic","none",30,"BI2A00020","definitely no",-3,2399,"india"
"367","think","A1NQW9H2DW4XDG","college_bachDegree","yes_multiple","female",40,"christianity_catholic","none",31,"BI2A00009","maybe no",-1,1732,"india"
"368","think","A1NQW9H2DW4XDG","college_bachDegree","yes_multiple","female",40,"christianity_catholic","none",32,"BI2A00031","definitely no",-3,1751,"india"
"369","think","A1NQW9H2DW4XDG","college_bachDegree","yes_multiple","female",40,"christianity_catholic","none",33,"BI2A00018","definitely no",-3,1418,"india"
"370","think","A1NQW9H2DW4XDG","college_bachDegree","yes_multiple","female",40,"christianity_catholic","none",34,"BI2A00035","definitely no",-3,1565,"india"
"371","think","A1NQW9H2DW4XDG","college_bachDegree","yes_multiple","female",40,"christianity_catholic","none",35,"BI2A00027","definitely no",-3,1366,"india"
"372","think","A1NQW9H2DW4XDG","college_bachDegree","yes_multiple","female",40,"christianity_catholic","none",36,"BI2A00006","maybe no",-1,1636,"india"
"373","think","A1NQW9H2DW4XDG","college_bachDegree","yes_multiple","female",40,"christianity_catholic","none",37,"BI2A00034","definitely no",-3,2398,"india"
"374","think","A1NQW9H2DW4XDG","college_bachDegree","yes_multiple","female",40,"christianity_catholic","none",38,"BI2A00030","definitely no",-3,1317,"india"
"375","think","A1NQW9H2DW4XDG","college_bachDegree","yes_multiple","female",40,"christianity_catholic","none",39,"BI2A00001","maybe no",-1,3569,"india"
"376","think","A1NQW9H2DW4XDG","college_bachDegree","yes_multiple","female",40,"christianity_catholic","none",40,"BI2A00025","definitely no",-3,3117,"india"
"377","think","A1NQW9H2DW4XDG","college_bachDegree","yes_multiple","female",40,"christianity_catholic","none",41,"BI2A00012","definitely no",-3,2713,"india"
"378","think","A1NQW9H2DW4XDG","college_bachDegree","yes_multiple","female",40,"christianity_catholic","none",42,"BI2A00019","definitely no",-3,1850,"india"
"379","think","A1NQW9H2DW4XDG","college_bachDegree","yes_multiple","female",40,"christianity_catholic","none",43,"BI2A00048","definitely no",-3,1931,"india"
"380","think","A1NQW9H2DW4XDG","college_bachDegree","yes_multiple","female",40,"christianity_catholic","none",44,"BI2A00008","maybe no",-1,3367,"india"
"381","think","A1NQW9H2DW4XDG","college_bachDegree","yes_multiple","female",40,"christianity_catholic","none",45,"BI2A00047","definitely no",-3,2533,"india"
"382","think","A1NQW9H2DW4XDG","college_bachDegree","yes_multiple","female",40,"christianity_catholic","none",46,"BI2A00046","definitely no",-3,4439,"india"
"383","think","A1NQW9H2DW4XDG","college_bachDegree","yes_multiple","female",40,"christianity_catholic","none",47,"BI2A00013","maybe no",-1,3832,"india"
"384","think","A1NQW9H2DW4XDG","college_bachDegree","yes_multiple","female",40,"christianity_catholic","none",48,"BI2A00026","definitely no",-3,2851,"india"
"385","animal","ASROVV61167I6","grad_degree","yes_multiple","female",27,"hinduism","Very easy and interesting task.",1,"BI2A00014","maybe yes",1,15739,"india"
"386","animal","ASROVV61167I6","grad_degree","yes_multiple","female",27,"hinduism","Very easy and interesting task.",2,"BI2A00009","definitely yes",3,3845,"india"
"387","animal","ASROVV61167I6","grad_degree","yes_multiple","female",27,"hinduism","Very easy and interesting task.",3,"BI2A00048","definitely no",-3,3380,"india"
"388","animal","ASROVV61167I6","grad_degree","yes_multiple","female",27,"hinduism","Very easy and interesting task.",4,"BI2A00013","maybe yes",1,5819,"india"
"389","animal","ASROVV61167I6","grad_degree","yes_multiple","female",27,"hinduism","Very easy and interesting task.",5,"BI2A00033","definitely no",-3,2829,"india"
"390","animal","ASROVV61167I6","grad_degree","yes_multiple","female",27,"hinduism","Very easy and interesting task.",6,"BI2A00043","definitely no",-3,1852,"india"
"391","animal","ASROVV61167I6","grad_degree","yes_multiple","female",27,"hinduism","Very easy and interesting task.",7,"BI2A00030","definitely no",-3,2520,"india"
"392","animal","ASROVV61167I6","grad_degree","yes_multiple","female",27,"hinduism","Very easy and interesting task.",8,"BI2A00027","definitely no",-3,2226,"india"
"393","animal","ASROVV61167I6","grad_degree","yes_multiple","female",27,"hinduism","Very easy and interesting task.",9,"BI2A00040","definitely no",-3,1619,"india"
"394","animal","ASROVV61167I6","grad_degree","yes_multiple","female",27,"hinduism","Very easy and interesting task.",10,"BI2A00011","definitely yes",3,2436,"india"
"395","animal","ASROVV61167I6","grad_degree","yes_multiple","female",27,"hinduism","Very easy and interesting task.",11,"BI2A00025","definitely no",-3,3129,"india"
"396","animal","ASROVV61167I6","grad_degree","yes_multiple","female",27,"hinduism","Very easy and interesting task.",12,"BI2A00005","definitely yes",3,2757,"india"
"397","animal","ASROVV61167I6","grad_degree","yes_multiple","female",27,"hinduism","Very easy and interesting task.",13,"BI2A00037","definitely no",-3,2976,"india"
"398","animal","ASROVV61167I6","grad_degree","yes_multiple","female",27,"hinduism","Very easy and interesting task.",14,"BI2A00022","maybe yes",1,3459,"india"
"399","animal","ASROVV61167I6","grad_degree","yes_multiple","female",27,"hinduism","Very easy and interesting task.",15,"BI2A00042","definitely no",-3,2834,"india"
"400","animal","ASROVV61167I6","grad_degree","yes_multiple","female",27,"hinduism","Very easy and interesting task.",16,"BI2A00015","maybe yes",1,2209,"india"
"401","animal","ASROVV61167I6","grad_degree","yes_multiple","female",27,"hinduism","Very easy and interesting task.",17,"BI2A00018","definitely no",-3,2288,"india"
"402","animal","ASROVV61167I6","grad_degree","yes_multiple","female",27,"hinduism","Very easy and interesting task.",18,"BI2A00017","definitely no",-3,2089,"india"
"403","animal","ASROVV61167I6","grad_degree","yes_multiple","female",27,"hinduism","Very easy and interesting task.",19,"BI2A00004","definitely yes",3,3220,"india"
"404","animal","ASROVV61167I6","grad_degree","yes_multiple","female",27,"hinduism","Very easy and interesting task.",20,"BI2A00019","equally yes/no",0,6556,"india"
"405","animal","ASROVV61167I6","grad_degree","yes_multiple","female",27,"hinduism","Very easy and interesting task.",21,"BI2A00034","definitely no",-3,2314,"india"
"406","animal","ASROVV61167I6","grad_degree","yes_multiple","female",27,"hinduism","Very easy and interesting task.",22,"BI2A00044","definitely no",-3,1187,"india"
"407","animal","ASROVV61167I6","grad_degree","yes_multiple","female",27,"hinduism","Very easy and interesting task.",23,"BI2A00002","maybe yes",1,2973,"india"
"408","animal","ASROVV61167I6","grad_degree","yes_multiple","female",27,"hinduism","Very easy and interesting task.",24,"BI2A00024","maybe yes",1,4006,"india"
"409","animal","ASROVV61167I6","grad_degree","yes_multiple","female",27,"hinduism","Very easy and interesting task.",25,"BI2A00035","definitely no",-3,2044,"india"
"410","animal","ASROVV61167I6","grad_degree","yes_multiple","female",27,"hinduism","Very easy and interesting task.",26,"BI2A00006","definitely yes",3,2074,"india"
"411","animal","ASROVV61167I6","grad_degree","yes_multiple","female",27,"hinduism","Very easy and interesting task.",27,"BI2A00039","definitely no",-3,1908,"india"
"412","animal","ASROVV61167I6","grad_degree","yes_multiple","female",27,"hinduism","Very easy and interesting task.",28,"BI2A00026","maybe yes",1,4198,"india"
"413","animal","ASROVV61167I6","grad_degree","yes_multiple","female",27,"hinduism","Very easy and interesting task.",29,"BI2A00020","probably yes",2,3000,"india"
"414","animal","ASROVV61167I6","grad_degree","yes_multiple","female",27,"hinduism","Very easy and interesting task.",30,"BI2A00046","definitely no",-3,1629,"india"
"415","animal","ASROVV61167I6","grad_degree","yes_multiple","female",27,"hinduism","Very easy and interesting task.",31,"BI2A00029","definitely no",-3,1509,"india"
"416","animal","ASROVV61167I6","grad_degree","yes_multiple","female",27,"hinduism","Very easy and interesting task.",32,"BI2A00047","definitely no",-3,1173,"india"
"417","animal","ASROVV61167I6","grad_degree","yes_multiple","female",27,"hinduism","Very easy and interesting task.",33,"BI2A00045","definitely no",-3,901,"india"
"418","animal","ASROVV61167I6","grad_degree","yes_multiple","female",27,"hinduism","Very easy and interesting task.",34,"BI2A00012","definitely no",-3,2900,"india"
"419","animal","ASROVV61167I6","grad_degree","yes_multiple","female",27,"hinduism","Very easy and interesting task.",35,"BI2A00036","definitely no",-3,1085,"india"
"420","animal","ASROVV61167I6","grad_degree","yes_multiple","female",27,"hinduism","Very easy and interesting task.",36,"BI2A00010","maybe yes",1,3150,"india"
"421","animal","ASROVV61167I6","grad_degree","yes_multiple","female",27,"hinduism","Very easy and interesting task.",37,"BI2A00023","definitely no",-3,2781,"india"
"422","animal","ASROVV61167I6","grad_degree","yes_multiple","female",27,"hinduism","Very easy and interesting task.",38,"BI2A00038","definitely no",-3,1549,"india"
"423","animal","ASROVV61167I6","grad_degree","yes_multiple","female",27,"hinduism","Very easy and interesting task.",39,"BI2A00031","definitely no",-3,821,"india"
"424","animal","ASROVV61167I6","grad_degree","yes_multiple","female",27,"hinduism","Very easy and interesting task.",40,"BI2A00041","definitely no",-3,1933,"india"
"425","animal","ASROVV61167I6","grad_degree","yes_multiple","female",27,"hinduism","Very easy and interesting task.",41,"BI2A00003","definitely yes",3,2725,"india"
"426","animal","ASROVV61167I6","grad_degree","yes_multiple","female",27,"hinduism","Very easy and interesting task.",42,"BI2A00032","definitely no",-3,1693,"india"
"427","animal","ASROVV61167I6","grad_degree","yes_multiple","female",27,"hinduism","Very easy and interesting task.",43,"BI2A00028","definitely no",-3,7782,"india"
"428","animal","ASROVV61167I6","grad_degree","yes_multiple","female",27,"hinduism","Very easy and interesting task.",44,"BI2A00008","probably yes",2,2020,"india"
"429","animal","ASROVV61167I6","grad_degree","yes_multiple","female",27,"hinduism","Very easy and interesting task.",45,"BI2A00016","definitely no",-3,2972,"india"
"430","animal","ASROVV61167I6","grad_degree","yes_multiple","female",27,"hinduism","Very easy and interesting task.",46,"BI2A00001","maybe yes",1,1837,"india"
"431","animal","ASROVV61167I6","grad_degree","yes_multiple","female",27,"hinduism","Very easy and interesting task.",47,"BI2A00021","definitely no",-3,1862,"india"
"432","animal","ASROVV61167I6","grad_degree","yes_multiple","female",27,"hinduism","Very easy and interesting task.",48,"BI2A00007","definitely yes",3,1892,"india"
"433","hungry","AKHVXXXX53S5G","grad_degree","no_fluent","male",36,"christianity_protestant","Very interesting survey.",1,"BI2A00021","definitely no",-3,17475,"india"
"434","hungry","AKHVXXXX53S5G","grad_degree","no_fluent","male",36,"christianity_protestant","Very interesting survey.",2,"BI2A00020","probably no",-2,4444,"india"
"435","hungry","AKHVXXXX53S5G","grad_degree","no_fluent","male",36,"christianity_protestant","Very interesting survey.",3,"BI2A00015","definitely no",-3,2112,"india"
"436","hungry","AKHVXXXX53S5G","grad_degree","no_fluent","male",36,"christianity_protestant","Very interesting survey.",4,"BI2A00019","definitely no",-3,2290,"india"
"437","hungry","AKHVXXXX53S5G","grad_degree","no_fluent","male",36,"christianity_protestant","Very interesting survey.",5,"BI2A00003","definitely no",-3,883,"india"
"438","hungry","AKHVXXXX53S5G","grad_degree","no_fluent","male",36,"christianity_protestant","Very interesting survey.",6,"BI2A00048","definitely no",-3,1003,"india"
"439","hungry","AKHVXXXX53S5G","grad_degree","no_fluent","male",36,"christianity_protestant","Very interesting survey.",7,"BI2A00042","definitely no",-3,1315,"india"
"440","hungry","AKHVXXXX53S5G","grad_degree","no_fluent","male",36,"christianity_protestant","Very interesting survey.",8,"BI2A00005","definitely no",-3,939,"india"
"441","hungry","AKHVXXXX53S5G","grad_degree","no_fluent","male",36,"christianity_protestant","Very interesting survey.",9,"BI2A00011","definitely no",-3,530,"india"
"442","hungry","AKHVXXXX53S5G","grad_degree","no_fluent","male",36,"christianity_protestant","Very interesting survey.",10,"BI2A00017","definitely no",-3,691,"india"
"443","hungry","AKHVXXXX53S5G","grad_degree","no_fluent","male",36,"christianity_protestant","Very interesting survey.",11,"BI2A00024","probably no",-2,5619,"india"
"444","hungry","AKHVXXXX53S5G","grad_degree","no_fluent","male",36,"christianity_protestant","Very interesting survey.",12,"BI2A00016","probably no",-2,1555,"india"
"445","hungry","AKHVXXXX53S5G","grad_degree","no_fluent","male",36,"christianity_protestant","Very interesting survey.",13,"BI2A00034","maybe no",-1,1872,"india"
"446","hungry","AKHVXXXX53S5G","grad_degree","no_fluent","male",36,"christianity_protestant","Very interesting survey.",14,"BI2A00030","maybe no",-1,1626,"india"
"447","hungry","AKHVXXXX53S5G","grad_degree","no_fluent","male",36,"christianity_protestant","Very interesting survey.",15,"BI2A00031","probably no",-2,1059,"india"
"448","hungry","AKHVXXXX53S5G","grad_degree","no_fluent","male",36,"christianity_protestant","Very interesting survey.",16,"BI2A00001","maybe no",-1,715,"india"
"449","hungry","AKHVXXXX53S5G","grad_degree","no_fluent","male",36,"christianity_protestant","Very interesting survey.",17,"BI2A00026","definitely no",-3,1051,"india"
"450","hungry","AKHVXXXX53S5G","grad_degree","no_fluent","male",36,"christianity_protestant","Very interesting survey.",18,"BI2A00046","definitely no",-3,955,"india"
"451","hungry","AKHVXXXX53S5G","grad_degree","no_fluent","male",36,"christianity_protestant","Very interesting survey.",19,"BI2A00010","definitely no",-3,1099,"india"
"452","hungry","AKHVXXXX53S5G","grad_degree","no_fluent","male",36,"christianity_protestant","Very interesting survey.",20,"BI2A00022","definitely no",-3,851,"india"
"453","hungry","AKHVXXXX53S5G","grad_degree","no_fluent","male",36,"christianity_protestant","Very interesting survey.",21,"BI2A00041","definitely no",-3,923,"india"
"454","hungry","AKHVXXXX53S5G","grad_degree","no_fluent","male",36,"christianity_protestant","Very interesting survey.",22,"BI2A00012","definitely no",-3,731,"india"
"455","hungry","AKHVXXXX53S5G","grad_degree","no_fluent","male",36,"christianity_protestant","Very interesting survey.",23,"BI2A00018","definitely no",-3,611,"india"
"456","hungry","AKHVXXXX53S5G","grad_degree","no_fluent","male",36,"christianity_protestant","Very interesting survey.",24,"BI2A00033","definitely no",-3,491,"india"
"457","hungry","AKHVXXXX53S5G","grad_degree","no_fluent","male",36,"christianity_protestant","Very interesting survey.",25,"BI2A00027","definitely no",-3,851,"india"
"458","hungry","AKHVXXXX53S5G","grad_degree","no_fluent","male",36,"christianity_protestant","Very interesting survey.",26,"BI2A00044","definitely no",-3,852,"india"
"459","hungry","AKHVXXXX53S5G","grad_degree","no_fluent","male",36,"christianity_protestant","Very interesting survey.",27,"BI2A00004","probably no",-2,1202,"india"
"460","hungry","AKHVXXXX53S5G","grad_degree","no_fluent","male",36,"christianity_protestant","Very interesting survey.",28,"BI2A00028","probably no",-2,547,"india"
"461","hungry","AKHVXXXX53S5G","grad_degree","no_fluent","male",36,"christianity_protestant","Very interesting survey.",29,"BI2A00043","probably no",-2,388,"india"
"462","hungry","AKHVXXXX53S5G","grad_degree","no_fluent","male",36,"christianity_protestant","Very interesting survey.",30,"BI2A00047","probably no",-2,427,"india"
"463","hungry","AKHVXXXX53S5G","grad_degree","no_fluent","male",36,"christianity_protestant","Very interesting survey.",31,"BI2A00045","probably no",-2,660,"india"
"464","hungry","AKHVXXXX53S5G","grad_degree","no_fluent","male",36,"christianity_protestant","Very interesting survey.",32,"BI2A00040","probably no",-2,716,"india"
"465","hungry","AKHVXXXX53S5G","grad_degree","no_fluent","male",36,"christianity_protestant","Very interesting survey.",33,"BI2A00008","probably no",-2,874,"india"
"466","hungry","AKHVXXXX53S5G","grad_degree","no_fluent","male",36,"christianity_protestant","Very interesting survey.",34,"BI2A00014","probably no",-2,492,"india"
"467","hungry","AKHVXXXX53S5G","grad_degree","no_fluent","male",36,"christianity_protestant","Very interesting survey.",35,"BI2A00038","probably no",-2,539,"india"
"468","hungry","AKHVXXXX53S5G","grad_degree","no_fluent","male",36,"christianity_protestant","Very interesting survey.",36,"BI2A00006","probably no",-2,581,"india"
"469","hungry","AKHVXXXX53S5G","grad_degree","no_fluent","male",36,"christianity_protestant","Very interesting survey.",37,"BI2A00002","probably no",-2,802,"india"
"470","hungry","AKHVXXXX53S5G","grad_degree","no_fluent","male",36,"christianity_protestant","Very interesting survey.",38,"BI2A00032","probably no",-2,587,"india"
"471","hungry","AKHVXXXX53S5G","grad_degree","no_fluent","male",36,"christianity_protestant","Very interesting survey.",39,"BI2A00035","probably no",-2,492,"india"
"472","hungry","AKHVXXXX53S5G","grad_degree","no_fluent","male",36,"christianity_protestant","Very interesting survey.",40,"BI2A00037","probably no",-2,466,"india"
"473","hungry","AKHVXXXX53S5G","grad_degree","no_fluent","male",36,"christianity_protestant","Very interesting survey.",41,"BI2A00036","probably no",-2,444,"india"
"474","hungry","AKHVXXXX53S5G","grad_degree","no_fluent","male",36,"christianity_protestant","Very interesting survey.",42,"BI2A00009","probably no",-2,578,"india"
"475","hungry","AKHVXXXX53S5G","grad_degree","no_fluent","male",36,"christianity_protestant","Very interesting survey.",43,"BI2A00029","probably no",-2,724,"india"
"476","hungry","AKHVXXXX53S5G","grad_degree","no_fluent","male",36,"christianity_protestant","Very interesting survey.",44,"BI2A00025","probably no",-2,971,"india"
"477","hungry","AKHVXXXX53S5G","grad_degree","no_fluent","male",36,"christianity_protestant","Very interesting survey.",45,"BI2A00007","probably no",-2,587,"india"
"478","hungry","AKHVXXXX53S5G","grad_degree","no_fluent","male",36,"christianity_protestant","Very interesting survey.",46,"BI2A00039","maybe yes",1,5387,"india"
"479","hungry","AKHVXXXX53S5G","grad_degree","no_fluent","male",36,"christianity_protestant","Very interesting survey.",47,"BI2A00013","probably no",-2,1266,"india"
"480","hungry","AKHVXXXX53S5G","grad_degree","no_fluent","male",36,"christianity_protestant","Very interesting survey.",48,"BI2A00023","probably no",-2,1259,"india"
"481","sense","AJZBAP861F6X1","college_bachDegree","no","male",38,"hinduism","give more surveys",1,"BI2A00034","maybe yes",1,14598,"india"
"482","sense","AJZBAP861F6X1","college_bachDegree","no","male",38,"hinduism","give more surveys",2,"BI2A00047","probably yes",2,4500,"india"
"483","sense","AJZBAP861F6X1","college_bachDegree","no","male",38,"hinduism","give more surveys",3,"BI2A00024","probably yes",2,3805,"india"
"484","sense","AJZBAP861F6X1","college_bachDegree","no","male",38,"hinduism","give more surveys",4,"BI2A00040","probably yes",2,6158,"india"
"485","sense","AJZBAP861F6X1","college_bachDegree","no","male",38,"hinduism","give more surveys",5,"BI2A00019","probably yes",2,4389,"india"
"486","sense","AJZBAP861F6X1","college_bachDegree","no","male",38,"hinduism","give more surveys",6,"BI2A00042","maybe no",-1,4388,"india"
"487","sense","AJZBAP861F6X1","college_bachDegree","no","male",38,"hinduism","give more surveys",7,"BI2A00041","probably yes",2,2166,"india"
"488","sense","AJZBAP861F6X1","college_bachDegree","no","male",38,"hinduism","give more surveys",8,"BI2A00037","probably yes",2,1811,"india"
"489","sense","AJZBAP861F6X1","college_bachDegree","no","male",38,"hinduism","give more surveys",9,"BI2A00003","probably yes",2,2781,"india"
"490","sense","AJZBAP861F6X1","college_bachDegree","no","male",38,"hinduism","give more surveys",10,"BI2A00045","probably yes",2,1562,"india"
"491","sense","AJZBAP861F6X1","college_bachDegree","no","male",38,"hinduism","give more surveys",11,"BI2A00048","probably yes",2,1968,"india"
"492","sense","AJZBAP861F6X1","college_bachDegree","no","male",38,"hinduism","give more surveys",12,"BI2A00011","probably yes",2,4146,"india"
"493","sense","AJZBAP861F6X1","college_bachDegree","no","male",38,"hinduism","give more surveys",13,"BI2A00044","maybe yes",1,3820,"india"
"494","sense","AJZBAP861F6X1","college_bachDegree","no","male",38,"hinduism","give more surveys",14,"BI2A00010","maybe yes",1,2653,"india"
"495","sense","AJZBAP861F6X1","college_bachDegree","no","male",38,"hinduism","give more surveys",15,"BI2A00016","probably yes",2,3464,"india"
"496","sense","AJZBAP861F6X1","college_bachDegree","no","male",38,"hinduism","give more surveys",16,"BI2A00028","maybe yes",1,3558,"india"
"497","sense","AJZBAP861F6X1","college_bachDegree","no","male",38,"hinduism","give more surveys",17,"BI2A00020","maybe yes",1,2061,"india"
"498","sense","AJZBAP861F6X1","college_bachDegree","no","male",38,"hinduism","give more surveys",18,"BI2A00004","maybe yes",1,6365,"india"
"499","sense","AJZBAP861F6X1","college_bachDegree","no","male",38,"hinduism","give more surveys",19,"BI2A00046","equally yes/no",0,5581,"india"
"500","sense","AJZBAP861F6X1","college_bachDegree","no","male",38,"hinduism","give more surveys",20,"BI2A00002","equally yes/no",0,2837,"india"
"501","sense","AJZBAP861F6X1","college_bachDegree","no","male",38,"hinduism","give more surveys",21,"BI2A00012","equally yes/no",0,1845,"india"
"502","sense","AJZBAP861F6X1","college_bachDegree","no","male",38,"hinduism","give more surveys",22,"BI2A00001","maybe no",-1,3553,"india"
"503","sense","AJZBAP861F6X1","college_bachDegree","no","male",38,"hinduism","give more surveys",23,"BI2A00008","maybe no",-1,1813,"india"
"504","sense","AJZBAP861F6X1","college_bachDegree","no","male",38,"hinduism","give more surveys",24,"BI2A00007","maybe no",-1,2868,"india"
"505","sense","AJZBAP861F6X1","college_bachDegree","no","male",38,"hinduism","give more surveys",25,"BI2A00032","equally yes/no",0,3221,"india"
"506","sense","AJZBAP861F6X1","college_bachDegree","no","male",38,"hinduism","give more surveys",26,"BI2A00013","maybe yes",1,2707,"india"
"507","sense","AJZBAP861F6X1","college_bachDegree","no","male",38,"hinduism","give more surveys",27,"BI2A00027","probably no",-2,2997,"india"
"508","sense","AJZBAP861F6X1","college_bachDegree","no","male",38,"hinduism","give more surveys",28,"BI2A00005","equally yes/no",0,3677,"india"
"509","sense","AJZBAP861F6X1","college_bachDegree","no","male",38,"hinduism","give more surveys",29,"BI2A00006","maybe yes",1,1996,"india"
"510","sense","AJZBAP861F6X1","college_bachDegree","no","male",38,"hinduism","give more surveys",30,"BI2A00038","maybe yes",1,1942,"india"
"511","sense","AJZBAP861F6X1","college_bachDegree","no","male",38,"hinduism","give more surveys",31,"BI2A00021","maybe yes",1,2108,"india"
"512","sense","AJZBAP861F6X1","college_bachDegree","no","male",38,"hinduism","give more surveys",32,"BI2A00039","maybe yes",1,2020,"india"
"513","sense","AJZBAP861F6X1","college_bachDegree","no","male",38,"hinduism","give more surveys",33,"BI2A00018","maybe yes",1,2452,"india"
"514","sense","AJZBAP861F6X1","college_bachDegree","no","male",38,"hinduism","give more surveys",34,"BI2A00023","equally yes/no",0,3556,"india"
"515","sense","AJZBAP861F6X1","college_bachDegree","no","male",38,"hinduism","give more surveys",35,"BI2A00031","equally yes/no",0,1429,"india"
"516","sense","AJZBAP861F6X1","college_bachDegree","no","male",38,"hinduism","give more surveys",36,"BI2A00009","equally yes/no",0,1908,"india"
"517","sense","AJZBAP861F6X1","college_bachDegree","no","male",38,"hinduism","give more surveys",37,"BI2A00029","maybe no",-1,3340,"india"
"518","sense","AJZBAP861F6X1","college_bachDegree","no","male",38,"hinduism","give more surveys",38,"BI2A00025","maybe no",-1,1573,"india"
"519","sense","AJZBAP861F6X1","college_bachDegree","no","male",38,"hinduism","give more surveys",39,"BI2A00030","probably no",-2,3214,"india"
"520","sense","AJZBAP861F6X1","college_bachDegree","no","male",38,"hinduism","give more surveys",40,"BI2A00033","probably no",-2,2118,"india"
"521","sense","AJZBAP861F6X1","college_bachDegree","no","male",38,"hinduism","give more surveys",41,"BI2A00022","probably no",-2,2268,"india"
"522","sense","AJZBAP861F6X1","college_bachDegree","no","male",38,"hinduism","give more surveys",42,"BI2A00015","equally yes/no",0,2206,"india"
"523","sense","AJZBAP861F6X1","college_bachDegree","no","male",38,"hinduism","give more surveys",43,"BI2A00014","maybe no",-1,2765,"india"
"524","sense","AJZBAP861F6X1","college_bachDegree","no","male",38,"hinduism","give more surveys",44,"BI2A00035","maybe no",-1,1998,"india"
"525","sense","AJZBAP861F6X1","college_bachDegree","no","male",38,"hinduism","give more surveys",45,"BI2A00017","maybe no",-1,3396,"india"
"526","sense","AJZBAP861F6X1","college_bachDegree","no","male",38,"hinduism","give more surveys",46,"BI2A00026","maybe no",-1,4446,"india"
"527","sense","AJZBAP861F6X1","college_bachDegree","no","male",38,"hinduism","give more surveys",47,"BI2A00043","maybe no",-1,7221,"india"
"528","sense","AJZBAP861F6X1","college_bachDegree","no","male",38,"hinduism","give more surveys",48,"BI2A00036","definitely no",-3,3749,"india"
"529","hungry","A3IUEMZG39ZS3H","grad_degree","no_fluent","female",31,"hinduism","",1,"BI2A00003","definitely no",-3,6561,"india"
"530","hungry","A3IUEMZG39ZS3H","grad_degree","no_fluent","female",31,"hinduism","",2,"BI2A00002","definitely no",-3,2916,"india"
"531","hungry","A3IUEMZG39ZS3H","grad_degree","no_fluent","female",31,"hinduism","",3,"BI2A00018","definitely no",-3,2879,"india"
"532","hungry","A3IUEMZG39ZS3H","grad_degree","no_fluent","female",31,"hinduism","",4,"BI2A00004","definitely no",-3,1185,"india"
"533","hungry","A3IUEMZG39ZS3H","grad_degree","no_fluent","female",31,"hinduism","",5,"BI2A00021","definitely no",-3,1055,"india"
"534","hungry","A3IUEMZG39ZS3H","grad_degree","no_fluent","female",31,"hinduism","",6,"BI2A00041","definitely no",-3,1056,"india"
"535","hungry","A3IUEMZG39ZS3H","grad_degree","no_fluent","female",31,"hinduism","",7,"BI2A00035","definitely no",-3,1009,"india"
"536","hungry","A3IUEMZG39ZS3H","grad_degree","no_fluent","female",31,"hinduism","",8,"BI2A00033","definitely no",-3,729,"india"
"537","hungry","A3IUEMZG39ZS3H","grad_degree","no_fluent","female",31,"hinduism","",9,"BI2A00042","definitely no",-3,881,"india"
"538","hungry","A3IUEMZG39ZS3H","grad_degree","no_fluent","female",31,"hinduism","",10,"BI2A00027","definitely no",-3,1211,"india"
"539","hungry","A3IUEMZG39ZS3H","grad_degree","no_fluent","female",31,"hinduism","",11,"BI2A00023","definitely no",-3,1500,"india"
"540","hungry","A3IUEMZG39ZS3H","grad_degree","no_fluent","female",31,"hinduism","",12,"BI2A00044","definitely no",-3,975,"india"
"541","hungry","A3IUEMZG39ZS3H","grad_degree","no_fluent","female",31,"hinduism","",13,"BI2A00007","definitely no",-3,1160,"india"
"542","hungry","A3IUEMZG39ZS3H","grad_degree","no_fluent","female",31,"hinduism","",14,"BI2A00028","definitely no",-3,745,"india"
"543","hungry","A3IUEMZG39ZS3H","grad_degree","no_fluent","female",31,"hinduism","",15,"BI2A00012","definitely no",-3,977,"india"
"544","hungry","A3IUEMZG39ZS3H","grad_degree","no_fluent","female",31,"hinduism","",16,"BI2A00015","definitely no",-3,974,"india"
"545","hungry","A3IUEMZG39ZS3H","grad_degree","no_fluent","female",31,"hinduism","",17,"BI2A00037","definitely no",-3,889,"india"
"546","hungry","A3IUEMZG39ZS3H","grad_degree","no_fluent","female",31,"hinduism","",18,"BI2A00031","definitely no",-3,1084,"india"
"547","hungry","A3IUEMZG39ZS3H","grad_degree","no_fluent","female",31,"hinduism","",19,"BI2A00040","definitely no",-3,848,"india"
"548","hungry","A3IUEMZG39ZS3H","grad_degree","no_fluent","female",31,"hinduism","",20,"BI2A00014","definitely no",-3,756,"india"
"549","hungry","A3IUEMZG39ZS3H","grad_degree","no_fluent","female",31,"hinduism","",21,"BI2A00008","definitely no",-3,1028,"india"
"550","hungry","A3IUEMZG39ZS3H","grad_degree","no_fluent","female",31,"hinduism","",22,"BI2A00009","definitely no",-3,2229,"india"
"551","hungry","A3IUEMZG39ZS3H","grad_degree","no_fluent","female",31,"hinduism","",23,"BI2A00048","definitely no",-3,704,"india"
"552","hungry","A3IUEMZG39ZS3H","grad_degree","no_fluent","female",31,"hinduism","",24,"BI2A00036","definitely no",-3,1677,"india"
"553","hungry","A3IUEMZG39ZS3H","grad_degree","no_fluent","female",31,"hinduism","",25,"BI2A00019","definitely no",-3,2786,"india"
"554","hungry","A3IUEMZG39ZS3H","grad_degree","no_fluent","female",31,"hinduism","",26,"BI2A00032","definitely no",-3,1877,"india"
"555","hungry","A3IUEMZG39ZS3H","grad_degree","no_fluent","female",31,"hinduism","",27,"BI2A00030","definitely no",-3,827,"india"
"556","hungry","A3IUEMZG39ZS3H","grad_degree","no_fluent","female",31,"hinduism","",28,"BI2A00047","probably no",-2,2137,"india"
"557","hungry","A3IUEMZG39ZS3H","grad_degree","no_fluent","female",31,"hinduism","",29,"BI2A00020","definitely no",-3,1545,"india"
"558","hungry","A3IUEMZG39ZS3H","grad_degree","no_fluent","female",31,"hinduism","",30,"BI2A00017","definitely no",-3,838,"india"
"559","hungry","A3IUEMZG39ZS3H","grad_degree","no_fluent","female",31,"hinduism","",31,"BI2A00024","definitely no",-3,971,"india"
"560","hungry","A3IUEMZG39ZS3H","grad_degree","no_fluent","female",31,"hinduism","",32,"BI2A00045","definitely no",-3,588,"india"
"561","hungry","A3IUEMZG39ZS3H","grad_degree","no_fluent","female",31,"hinduism","",33,"BI2A00010","definitely no",-3,916,"india"
"562","hungry","A3IUEMZG39ZS3H","grad_degree","no_fluent","female",31,"hinduism","",34,"BI2A00013","definitely no",-3,1212,"india"
"563","hungry","A3IUEMZG39ZS3H","grad_degree","no_fluent","female",31,"hinduism","",35,"BI2A00001","definitely no",-3,1004,"india"
"564","hungry","A3IUEMZG39ZS3H","grad_degree","no_fluent","female",31,"hinduism","",36,"BI2A00016","definitely no",-3,696,"india"
"565","hungry","A3IUEMZG39ZS3H","grad_degree","no_fluent","female",31,"hinduism","",37,"BI2A00022","definitely no",-3,682,"india"
"566","hungry","A3IUEMZG39ZS3H","grad_degree","no_fluent","female",31,"hinduism","",38,"BI2A00038","definitely no",-3,676,"india"
"567","hungry","A3IUEMZG39ZS3H","grad_degree","no_fluent","female",31,"hinduism","",39,"BI2A00006","definitely no",-3,1480,"india"
"568","hungry","A3IUEMZG39ZS3H","grad_degree","no_fluent","female",31,"hinduism","",40,"BI2A00034","definitely no",-3,1671,"india"
"569","hungry","A3IUEMZG39ZS3H","grad_degree","no_fluent","female",31,"hinduism","",41,"BI2A00025","definitely no",-3,656,"india"
"570","hungry","A3IUEMZG39ZS3H","grad_degree","no_fluent","female",31,"hinduism","",42,"BI2A00043","definitely no",-3,836,"india"
"571","hungry","A3IUEMZG39ZS3H","grad_degree","no_fluent","female",31,"hinduism","",43,"BI2A00011","definitely no",-3,1595,"india"
"572","hungry","A3IUEMZG39ZS3H","grad_degree","no_fluent","female",31,"hinduism","",44,"BI2A00005","definitely no",-3,1045,"india"
"573","hungry","A3IUEMZG39ZS3H","grad_degree","no_fluent","female",31,"hinduism","",45,"BI2A00029","definitely no",-3,3358,"india"
"574","hungry","A3IUEMZG39ZS3H","grad_degree","no_fluent","female",31,"hinduism","",46,"BI2A00046","definitely no",-3,756,"india"
"575","hungry","A3IUEMZG39ZS3H","grad_degree","no_fluent","female",31,"hinduism","",47,"BI2A00026","definitely no",-3,837,"india"
"576","hungry","A3IUEMZG39ZS3H","grad_degree","no_fluent","female",31,"hinduism","",48,"BI2A00039","definitely no",-3,705,"india"
"577","sense","A28PS7TGEQCFT4","grad_degree","no","male",29,"christianity_catholic","Thank you for this survey.",1,"BI2A00006","probably no",-2,6533,"india"
"578","sense","A28PS7TGEQCFT4","grad_degree","no","male",29,"christianity_catholic","Thank you for this survey.",2,"BI2A00034","maybe yes",1,2145,"india"
"579","sense","A28PS7TGEQCFT4","grad_degree","no","male",29,"christianity_catholic","Thank you for this survey.",3,"BI2A00045","probably yes",2,1932,"india"
"580","sense","A28PS7TGEQCFT4","grad_degree","no","male",29,"christianity_catholic","Thank you for this survey.",4,"BI2A00027","definitely no",-3,3573,"india"
"581","sense","A28PS7TGEQCFT4","grad_degree","no","male",29,"christianity_catholic","Thank you for this survey.",5,"BI2A00017","equally yes/no",0,3190,"india"
"582","sense","A28PS7TGEQCFT4","grad_degree","no","male",29,"christianity_catholic","Thank you for this survey.",6,"BI2A00012","maybe no",-1,2131,"india"
"583","sense","A28PS7TGEQCFT4","grad_degree","no","male",29,"christianity_catholic","Thank you for this survey.",7,"BI2A00022","probably yes",2,2381,"india"
"584","sense","A28PS7TGEQCFT4","grad_degree","no","male",29,"christianity_catholic","Thank you for this survey.",8,"BI2A00002","maybe no",-1,4565,"india"
"585","sense","A28PS7TGEQCFT4","grad_degree","no","male",29,"christianity_catholic","Thank you for this survey.",9,"BI2A00046","definitely yes",3,2221,"india"
"586","sense","A28PS7TGEQCFT4","grad_degree","no","male",29,"christianity_catholic","Thank you for this survey.",10,"BI2A00015","maybe yes",1,2197,"india"
"587","sense","A28PS7TGEQCFT4","grad_degree","no","male",29,"christianity_catholic","Thank you for this survey.",11,"BI2A00024","equally yes/no",0,1060,"india"
"588","sense","A28PS7TGEQCFT4","grad_degree","no","male",29,"christianity_catholic","Thank you for this survey.",12,"BI2A00029","maybe no",-1,1318,"india"
"589","sense","A28PS7TGEQCFT4","grad_degree","no","male",29,"christianity_catholic","Thank you for this survey.",13,"BI2A00040","probably no",-2,3141,"india"
"590","sense","A28PS7TGEQCFT4","grad_degree","no","male",29,"christianity_catholic","Thank you for this survey.",14,"BI2A00019","maybe no",-1,1340,"india"
"591","sense","A28PS7TGEQCFT4","grad_degree","no","male",29,"christianity_catholic","Thank you for this survey.",15,"BI2A00011","maybe yes",1,3388,"india"
"592","sense","A28PS7TGEQCFT4","grad_degree","no","male",29,"christianity_catholic","Thank you for this survey.",16,"BI2A00039","equally yes/no",0,2221,"india"
"593","sense","A28PS7TGEQCFT4","grad_degree","no","male",29,"christianity_catholic","Thank you for this survey.",17,"BI2A00023","probably yes",2,1572,"india"
"594","sense","A28PS7TGEQCFT4","grad_degree","no","male",29,"christianity_catholic","Thank you for this survey.",18,"BI2A00044","definitely no",-3,1677,"india"
"595","sense","A28PS7TGEQCFT4","grad_degree","no","male",29,"christianity_catholic","Thank you for this survey.",19,"BI2A00007","probably no",-2,2149,"india"
"596","sense","A28PS7TGEQCFT4","grad_degree","no","male",29,"christianity_catholic","Thank you for this survey.",20,"BI2A00031","definitely no",-3,1475,"india"
"597","sense","A28PS7TGEQCFT4","grad_degree","no","male",29,"christianity_catholic","Thank you for this survey.",21,"BI2A00014","maybe no",-1,1366,"india"
"598","sense","A28PS7TGEQCFT4","grad_degree","no","male",29,"christianity_catholic","Thank you for this survey.",22,"BI2A00038","equally yes/no",0,1236,"india"
"599","sense","A28PS7TGEQCFT4","grad_degree","no","male",29,"christianity_catholic","Thank you for this survey.",23,"BI2A00026","probably no",-2,1692,"india"
"600","sense","A28PS7TGEQCFT4","grad_degree","no","male",29,"christianity_catholic","Thank you for this survey.",24,"BI2A00033","maybe no",-1,1109,"india"
"601","sense","A28PS7TGEQCFT4","grad_degree","no","male",29,"christianity_catholic","Thank you for this survey.",25,"BI2A00047","definitely no",-3,1253,"india"
"602","sense","A28PS7TGEQCFT4","grad_degree","no","male",29,"christianity_catholic","Thank you for this survey.",26,"BI2A00013","maybe no",-1,2761,"india"
"603","sense","A28PS7TGEQCFT4","grad_degree","no","male",29,"christianity_catholic","Thank you for this survey.",27,"BI2A00001","probably no",-2,2237,"india"
"604","sense","A28PS7TGEQCFT4","grad_degree","no","male",29,"christianity_catholic","Thank you for this survey.",28,"BI2A00016","probably yes",2,21570,"india"
"605","sense","A28PS7TGEQCFT4","grad_degree","no","male",29,"christianity_catholic","Thank you for this survey.",29,"BI2A00041","maybe no",-1,1677,"india"
"606","sense","A28PS7TGEQCFT4","grad_degree","no","male",29,"christianity_catholic","Thank you for this survey.",30,"BI2A00032","definitely no",-3,1799,"india"
"607","sense","A28PS7TGEQCFT4","grad_degree","no","male",29,"christianity_catholic","Thank you for this survey.",31,"BI2A00042","maybe no",-1,1422,"india"
"608","sense","A28PS7TGEQCFT4","grad_degree","no","male",29,"christianity_catholic","Thank you for this survey.",32,"BI2A00025","probably no",-2,2269,"india"
"609","sense","A28PS7TGEQCFT4","grad_degree","no","male",29,"christianity_catholic","Thank you for this survey.",33,"BI2A00037","definitely no",-3,1685,"india"
"610","sense","A28PS7TGEQCFT4","grad_degree","no","male",29,"christianity_catholic","Thank you for this survey.",34,"BI2A00043","maybe no",-1,1277,"india"
"611","sense","A28PS7TGEQCFT4","grad_degree","no","male",29,"christianity_catholic","Thank you for this survey.",35,"BI2A00009","maybe yes",1,1497,"india"
"612","sense","A28PS7TGEQCFT4","grad_degree","no","male",29,"christianity_catholic","Thank you for this survey.",36,"BI2A00035","equally yes/no",0,2913,"india"
"613","sense","A28PS7TGEQCFT4","grad_degree","no","male",29,"christianity_catholic","Thank you for this survey.",37,"BI2A00030","definitely no",-3,1853,"india"
"614","sense","A28PS7TGEQCFT4","grad_degree","no","male",29,"christianity_catholic","Thank you for this survey.",38,"BI2A00048","probably no",-2,1054,"india"
"615","sense","A28PS7TGEQCFT4","grad_degree","no","male",29,"christianity_catholic","Thank you for this survey.",39,"BI2A00004","probably yes",2,3174,"india"
"616","sense","A28PS7TGEQCFT4","grad_degree","no","male",29,"christianity_catholic","Thank you for this survey.",40,"BI2A00003","maybe no",-1,1718,"india"
"617","sense","A28PS7TGEQCFT4","grad_degree","no","male",29,"christianity_catholic","Thank you for this survey.",41,"BI2A00028","definitely no",-3,1780,"india"
"618","sense","A28PS7TGEQCFT4","grad_degree","no","male",29,"christianity_catholic","Thank you for this survey.",42,"BI2A00010","probably yes",2,3413,"india"
"619","sense","A28PS7TGEQCFT4","grad_degree","no","male",29,"christianity_catholic","Thank you for this survey.",43,"BI2A00018","maybe no",-1,1557,"india"
"620","sense","A28PS7TGEQCFT4","grad_degree","no","male",29,"christianity_catholic","Thank you for this survey.",44,"BI2A00020","probably no",-2,1684,"india"
"621","sense","A28PS7TGEQCFT4","grad_degree","no","male",29,"christianity_catholic","Thank you for this survey.",45,"BI2A00021","definitely no",-3,1973,"india"
"622","sense","A28PS7TGEQCFT4","grad_degree","no","male",29,"christianity_catholic","Thank you for this survey.",46,"BI2A00036","maybe no",-1,1950,"india"
"623","sense","A28PS7TGEQCFT4","grad_degree","no","male",29,"christianity_catholic","Thank you for this survey.",47,"BI2A00005","probably no",-2,2614,"india"
"624","sense","A28PS7TGEQCFT4","grad_degree","no","male",29,"christianity_catholic","Thank you for this survey.",48,"BI2A00008","maybe no",-1,1918,"india"
"625","animal","A19HCBT1EH8484","grad_degree","no","male",37,"hinduism","I loved completing this HIT.",1,"BI2A00012","maybe yes",1,1541,"india"
"626","animal","A19HCBT1EH8484","grad_degree","no","male",37,"hinduism","I loved completing this HIT.",2,"BI2A00003","probably yes",2,434,"india"
"627","animal","A19HCBT1EH8484","grad_degree","no","male",37,"hinduism","I loved completing this HIT.",3,"BI2A00009","definitely yes",3,359,"india"
"628","animal","A19HCBT1EH8484","grad_degree","no","male",37,"hinduism","I loved completing this HIT.",4,"BI2A00006","maybe no",-1,1058,"india"
"629","animal","A19HCBT1EH8484","grad_degree","no","male",37,"hinduism","I loved completing this HIT.",5,"BI2A00017","equally yes/no",0,389,"india"
"630","animal","A19HCBT1EH8484","grad_degree","no","male",37,"hinduism","I loved completing this HIT.",6,"BI2A00026","maybe yes",1,359,"india"
"631","animal","A19HCBT1EH8484","grad_degree","no","male",37,"hinduism","I loved completing this HIT.",7,"BI2A00007","probably no",-2,549,"india"
"632","animal","A19HCBT1EH8484","grad_degree","no","male",37,"hinduism","I loved completing this HIT.",8,"BI2A00013","maybe no",-1,357,"india"
"633","animal","A19HCBT1EH8484","grad_degree","no","male",37,"hinduism","I loved completing this HIT.",9,"BI2A00048","equally yes/no",0,345,"india"
"634","animal","A19HCBT1EH8484","grad_degree","no","male",37,"hinduism","I loved completing this HIT.",10,"BI2A00016","maybe yes",1,1068,"india"
