"","condition","worker_id","education","english_native","ethnicity","gender","age","religion","comp_check","comments","trialNum","swatch","response","responseCoded","rt","country"
"1","animal","A2BAQ26SMQQEUG","college_bachDegree",NA,"asian_southAsian","male",30,"hinduism","i think that this one is not an animal","",1,"BI2A00008","probably yes",2,6773,"india"
"2","animal","A2BAQ26SMQQEUG","college_bachDegree",NA,"asian_southAsian","male",30,"hinduism","i think that this one is not an animal","",2,"BI2A00033","probably yes",2,151249,"india"
"3","animal","A2BAQ26SMQQEUG","college_bachDegree",NA,"asian_southAsian","male",30,"hinduism","i think that this one is not an animal","",3,"BI2A00024","maybe yes",1,12972,"india"
"4","animal","A2BAQ26SMQQEUG","college_bachDegree",NA,"asian_southAsian","male",30,"hinduism","i think that this one is not an animal","",4,"BI2A00043","equally yes/no",0,92021,"india"
"5","animal","A2BAQ26SMQQEUG","college_bachDegree",NA,"asian_southAsian","male",30,"hinduism","i think that this one is not an animal","",5,"BI2A00001","maybe yes",1,36084,"india"
"6","animal","A2BAQ26SMQQEUG","college_bachDegree",NA,"asian_southAsian","male",30,"hinduism","i think that this one is not an animal","",6,"BI2A00022","equally yes/no",0,32148,"india"
"7","animal","A2BAQ26SMQQEUG","college_bachDegree",NA,"asian_southAsian","male",30,"hinduism","i think that this one is not an animal","",7,"BI2A00047","definitely no",-3,4588,"india"
"8","animal","A2BAQ26SMQQEUG","college_bachDegree",NA,"asian_southAsian","male",30,"hinduism","i think that this one is not an animal","",8,"BI2A00004","maybe yes",1,2268,"india"
"9","animal","A2BAQ26SMQQEUG","college_bachDegree",NA,"asian_southAsian","male",30,"hinduism","i think that this one is not an animal","",9,"BI2A00031","definitely no",-3,1822,"india"
"10","animal","A2BAQ26SMQQEUG","college_bachDegree",NA,"asian_southAsian","male",30,"hinduism","i think that this one is not an animal","",10,"BI2A00026","equally yes/no",0,2324,"india"
"11","animal","A2BAQ26SMQQEUG","college_bachDegree",NA,"asian_southAsian","male",30,"hinduism","i think that this one is not an animal","",11,"BI2A00012","equally yes/no",0,5557,"india"
"12","animal","A2BAQ26SMQQEUG","college_bachDegree",NA,"asian_southAsian","male",30,"hinduism","i think that this one is not an animal","",12,"BI2A00038","definitely no",-3,2640,"india"
"13","animal","A2BAQ26SMQQEUG","college_bachDegree",NA,"asian_southAsian","male",30,"hinduism","i think that this one is not an animal","",13,"BI2A00041","definitely no",-3,1854,"india"
"14","animal","A2BAQ26SMQQEUG","college_bachDegree",NA,"asian_southAsian","male",30,"hinduism","i think that this one is not an animal","",14,"BI2A00032","definitely no",-3,1913,"india"
"15","animal","A2BAQ26SMQQEUG","college_bachDegree",NA,"asian_southAsian","male",30,"hinduism","i think that this one is not an animal","",15,"BI2A00045","definitely no",-3,980,"india"
"16","animal","A2BAQ26SMQQEUG","college_bachDegree",NA,"asian_southAsian","male",30,"hinduism","i think that this one is not an animal","",16,"BI2A00042","definitely no",-3,1196,"india"
"17","animal","A2BAQ26SMQQEUG","college_bachDegree",NA,"asian_southAsian","male",30,"hinduism","i think that this one is not an animal","",17,"BI2A00030","definitely no",-3,1056,"india"
"18","animal","A2BAQ26SMQQEUG","college_bachDegree",NA,"asian_southAsian","male",30,"hinduism","i think that this one is not an animal","",18,"BI2A00046","definitely no",-3,1157,"india"
"19","animal","A2BAQ26SMQQEUG","college_bachDegree",NA,"asian_southAsian","male",30,"hinduism","i think that this one is not an animal","",19,"BI2A00014","equally yes/no",0,4922,"india"
"20","animal","A2BAQ26SMQQEUG","college_bachDegree",NA,"asian_southAsian","male",30,"hinduism","i think that this one is not an animal","",20,"BI2A00005","equally yes/no",0,1152,"india"
"21","animal","A2BAQ26SMQQEUG","college_bachDegree",NA,"asian_southAsian","male",30,"hinduism","i think that this one is not an animal","",21,"BI2A00003","equally yes/no",0,930,"india"
"22","animal","A2BAQ26SMQQEUG","college_bachDegree",NA,"asian_southAsian","male",30,"hinduism","i think that this one is not an animal","",22,"BI2A00016","equally yes/no",0,2357,"india"
"23","animal","A2BAQ26SMQQEUG","college_bachDegree",NA,"asian_southAsian","male",30,"hinduism","i think that this one is not an animal","",23,"BI2A00020","equally yes/no",0,1733,"india"
"24","animal","A2BAQ26SMQQEUG","college_bachDegree",NA,"asian_southAsian","male",30,"hinduism","i think that this one is not an animal","",24,"BI2A00010","definitely no",-3,4357,"india"
"25","animal","A2BAQ26SMQQEUG","college_bachDegree",NA,"asian_southAsian","male",30,"hinduism","i think that this one is not an animal","",25,"BI2A00025","definitely no",-3,2599,"india"
"26","animal","A2BAQ26SMQQEUG","college_bachDegree",NA,"asian_southAsian","male",30,"hinduism","i think that this one is not an animal","",26,"BI2A00002","equally yes/no",0,1190,"india"
"27","animal","A2BAQ26SMQQEUG","college_bachDegree",NA,"asian_southAsian","male",30,"hinduism","i think that this one is not an animal","",27,"BI2A00006","equally yes/no",0,1255,"india"
"28","animal","A2BAQ26SMQQEUG","college_bachDegree",NA,"asian_southAsian","male",30,"hinduism","i think that this one is not an animal","",28,"BI2A00039","definitely no",-3,1376,"india"
"29","animal","A2BAQ26SMQQEUG","college_bachDegree",NA,"asian_southAsian","male",30,"hinduism","i think that this one is not an animal","",29,"BI2A00027","definitely no",-3,1534,"india"
"30","animal","A2BAQ26SMQQEUG","college_bachDegree",NA,"asian_southAsian","male",30,"hinduism","i think that this one is not an animal","",30,"BI2A00044","definitely no",-3,1118,"india"
"31","animal","A2BAQ26SMQQEUG","college_bachDegree",NA,"asian_southAsian","male",30,"hinduism","i think that this one is not an animal","",31,"BI2A00028","definitely no",-3,2110,"india"
"32","animal","A2BAQ26SMQQEUG","college_bachDegree",NA,"asian_southAsian","male",30,"hinduism","i think that this one is not an animal","",32,"BI2A00017","definitely no",-3,1958,"india"
"33","animal","A2BAQ26SMQQEUG","college_bachDegree",NA,"asian_southAsian","male",30,"hinduism","i think that this one is not an animal","",33,"BI2A00048","definitely no",-3,1173,"india"
"34","animal","A2BAQ26SMQQEUG","college_bachDegree",NA,"asian_southAsian","male",30,"hinduism","i think that this one is not an animal","",34,"BI2A00037","definitely no",-3,2524,"india"
"35","animal","A2BAQ26SMQQEUG","college_bachDegree",NA,"asian_southAsian","male",30,"hinduism","i think that this one is not an animal","",35,"BI2A00011","equally yes/no",0,3591,"india"
"36","animal","A2BAQ26SMQQEUG","college_bachDegree",NA,"asian_southAsian","male",30,"hinduism","i think that this one is not an animal","",36,"BI2A00019","equally yes/no",0,2510,"india"
"37","animal","A2BAQ26SMQQEUG","college_bachDegree",NA,"asian_southAsian","male",30,"hinduism","i think that this one is not an animal","",37,"BI2A00035","definitely no",-3,1087,"india"
"38","animal","A2BAQ26SMQQEUG","college_bachDegree",NA,"asian_southAsian","male",30,"hinduism","i think that this one is not an animal","",38,"BI2A00015","equally yes/no",0,6094,"india"
"39","animal","A2BAQ26SMQQEUG","college_bachDegree",NA,"asian_southAsian","male",30,"hinduism","i think that this one is not an animal","",39,"BI2A00021","definitely no",-3,1059,"india"
"40","animal","A2BAQ26SMQQEUG","college_bachDegree",NA,"asian_southAsian","male",30,"hinduism","i think that this one is not an animal","",40,"BI2A00009","equally yes/no",0,1011,"india"
"41","animal","A2BAQ26SMQQEUG","college_bachDegree",NA,"asian_southAsian","male",30,"hinduism","i think that this one is not an animal","",41,"BI2A00036","definitely no",-3,973,"india"
"42","animal","A2BAQ26SMQQEUG","college_bachDegree",NA,"asian_southAsian","male",30,"hinduism","i think that this one is not an animal","",42,"BI2A00018","equally yes/no",0,2214,"india"
"43","animal","A2BAQ26SMQQEUG","college_bachDegree",NA,"asian_southAsian","male",30,"hinduism","i think that this one is not an animal","",43,"BI2A00007","equally yes/no",0,1455,"india"
"44","animal","A2BAQ26SMQQEUG","college_bachDegree",NA,"asian_southAsian","male",30,"hinduism","i think that this one is not an animal","",44,"BI2A00023","equally yes/no",0,3389,"india"
"45","animal","A2BAQ26SMQQEUG","college_bachDegree",NA,"asian_southAsian","male",30,"hinduism","i think that this one is not an animal","",45,"BI2A00040","definitely no",-3,1446,"india"
"46","animal","A2BAQ26SMQQEUG","college_bachDegree",NA,"asian_southAsian","male",30,"hinduism","i think that this one is not an animal","",46,"BI2A00034","definitely no",-3,2456,"india"
"47","animal","A2BAQ26SMQQEUG","college_bachDegree",NA,"asian_southAsian","male",30,"hinduism","i think that this one is not an animal","",47,"BI2A00029","equally yes/no",0,2418,"india"
"48","animal","A2BAQ26SMQQEUG","college_bachDegree",NA,"asian_southAsian","male",30,"hinduism","i think that this one is not an animal","",48,"BI2A00013","equally yes/no",0,1069,"india"
"49","animal","AWEQZZGOOBGV3","grad_some",NA,"asian_southAsian","male",28,"hinduism","i think this is an animal","nice survey",1,"BI2A00022","probably no",-2,68995,"india"
"50","animal","AWEQZZGOOBGV3","grad_some",NA,"asian_southAsian","male",28,"hinduism","i think this is an animal","nice survey",2,"BI2A00007","probably no",-2,37,"india"
"51","animal","AWEQZZGOOBGV3","grad_some",NA,"asian_southAsian","male",28,"hinduism","i think this is an animal","nice survey",3,"BI2A00043","definitely no",-3,8787,"india"
"52","animal","AWEQZZGOOBGV3","grad_some",NA,"asian_southAsian","male",28,"hinduism","i think this is an animal","nice survey",4,"BI2A00004","definitely yes",3,4441,"india"
"53","animal","AWEQZZGOOBGV3","grad_some",NA,"asian_southAsian","male",28,"hinduism","i think this is an animal","nice survey",5,"BI2A00017","probably no",-2,8005,"india"
"54","animal","AWEQZZGOOBGV3","grad_some",NA,"asian_southAsian","male",28,"hinduism","i think this is an animal","nice survey",6,"BI2A00038","definitely no",-3,29087,"india"
"55","animal","AWEQZZGOOBGV3","grad_some",NA,"asian_southAsian","male",28,"hinduism","i think this is an animal","nice survey",7,"BI2A00046","definitely no",-3,2161,"india"
"56","animal","AWEQZZGOOBGV3","grad_some",NA,"asian_southAsian","male",28,"hinduism","i think this is an animal","nice survey",8,"BI2A00001","definitely yes",3,2107,"india"
"57","animal","AWEQZZGOOBGV3","grad_some",NA,"asian_southAsian","male",28,"hinduism","i think this is an animal","nice survey",9,"BI2A00047","definitely no",-3,4460,"india"
"58","animal","AWEQZZGOOBGV3","grad_some",NA,"asian_southAsian","male",28,"hinduism","i think this is an animal","nice survey",10,"BI2A00009","definitely yes",3,2100,"india"
"59","animal","AWEQZZGOOBGV3","grad_some",NA,"asian_southAsian","male",28,"hinduism","i think this is an animal","nice survey",11,"BI2A00042","definitely no",-3,4138,"india"
"60","animal","AWEQZZGOOBGV3","grad_some",NA,"asian_southAsian","male",28,"hinduism","i think this is an animal","nice survey",12,"BI2A00012","definitely yes",3,8661,"india"
"61","animal","AWEQZZGOOBGV3","grad_some",NA,"asian_southAsian","male",28,"hinduism","i think this is an animal","nice survey",13,"BI2A00026","definitely yes",3,2028,"india"
"62","animal","AWEQZZGOOBGV3","grad_some",NA,"asian_southAsian","male",28,"hinduism","i think this is an animal","nice survey",14,"BI2A00002","definitely yes",3,891,"india"
"63","animal","AWEQZZGOOBGV3","grad_some",NA,"asian_southAsian","male",28,"hinduism","i think this is an animal","nice survey",15,"BI2A00045","definitely yes",3,3339,"india"
"64","animal","AWEQZZGOOBGV3","grad_some",NA,"asian_southAsian","male",28,"hinduism","i think this is an animal","nice survey",16,"BI2A00029","definitely yes",3,76,"india"
"65","animal","AWEQZZGOOBGV3","grad_some",NA,"asian_southAsian","male",28,"hinduism","i think this is an animal","nice survey",17,"BI2A00048","definitely no",-3,1975,"india"
"66","animal","AWEQZZGOOBGV3","grad_some",NA,"asian_southAsian","male",28,"hinduism","i think this is an animal","nice survey",18,"BI2A00005","definitely yes",3,1707,"india"
"67","animal","AWEQZZGOOBGV3","grad_some",NA,"asian_southAsian","male",28,"hinduism","i think this is an animal","nice survey",19,"BI2A00020","definitely yes",3,3979,"india"
"68","animal","AWEQZZGOOBGV3","grad_some",NA,"asian_southAsian","male",28,"hinduism","i think this is an animal","nice survey",20,"BI2A00014","definitely no",-3,5970,"india"
"69","animal","AWEQZZGOOBGV3","grad_some",NA,"asian_southAsian","male",28,"hinduism","i think this is an animal","nice survey",21,"BI2A00025","definitely no",-3,32516,"india"
"70","animal","AWEQZZGOOBGV3","grad_some",NA,"asian_southAsian","male",28,"hinduism","i think this is an animal","nice survey",22,"BI2A00027","definitely no",-3,82,"india"
"71","animal","AWEQZZGOOBGV3","grad_some",NA,"asian_southAsian","male",28,"hinduism","i think this is an animal","nice survey",23,"BI2A00019","definitely yes",3,1647,"india"
"72","animal","AWEQZZGOOBGV3","grad_some",NA,"asian_southAsian","male",28,"hinduism","i think this is an animal","nice survey",24,"BI2A00041","definitely yes",3,76,"india"
"73","animal","AWEQZZGOOBGV3","grad_some",NA,"asian_southAsian","male",28,"hinduism","i think this is an animal","nice survey",25,"BI2A00016","maybe no",-1,3184,"india"
"74","animal","AWEQZZGOOBGV3","grad_some",NA,"asian_southAsian","male",28,"hinduism","i think this is an animal","nice survey",26,"BI2A00033","probably no",-2,2184,"india"
"75","animal","AWEQZZGOOBGV3","grad_some",NA,"asian_southAsian","male",28,"hinduism","i think this is an animal","nice survey",27,"BI2A00035","definitely no",-3,1647,"india"
"76","animal","AWEQZZGOOBGV3","grad_some",NA,"asian_southAsian","male",28,"hinduism","i think this is an animal","nice survey",28,"BI2A00037","definitely no",-3,1248,"india"
"77","animal","AWEQZZGOOBGV3","grad_some",NA,"asian_southAsian","male",28,"hinduism","i think this is an animal","nice survey",29,"BI2A00010","definitely no",-3,58,"india"
"78","animal","AWEQZZGOOBGV3","grad_some",NA,"asian_southAsian","male",28,"hinduism","i think this is an animal","nice survey",30,"BI2A00023","definitely no",-3,1024,"india"
"79","animal","AWEQZZGOOBGV3","grad_some",NA,"asian_southAsian","male",28,"hinduism","i think this is an animal","nice survey",31,"BI2A00018","definitely no",-3,1100,"india"
"80","animal","AWEQZZGOOBGV3","grad_some",NA,"asian_southAsian","male",28,"hinduism","i think this is an animal","nice survey",32,"BI2A00034","definitely no",-3,997,"india"
"81","animal","AWEQZZGOOBGV3","grad_some",NA,"asian_southAsian","male",28,"hinduism","i think this is an animal","nice survey",33,"BI2A00040","definitely no",-3,70,"india"
"82","animal","AWEQZZGOOBGV3","grad_some",NA,"asian_southAsian","male",28,"hinduism","i think this is an animal","nice survey",34,"BI2A00003","definitely yes",3,1913,"india"
"83","animal","AWEQZZGOOBGV3","grad_some",NA,"asian_southAsian","male",28,"hinduism","i think this is an animal","nice survey",35,"BI2A00032","definitely no",-3,2668,"india"
"84","animal","AWEQZZGOOBGV3","grad_some",NA,"asian_southAsian","male",28,"hinduism","i think this is an animal","nice survey",36,"BI2A00044","definitely no",-3,953,"india"
"85","animal","AWEQZZGOOBGV3","grad_some",NA,"asian_southAsian","male",28,"hinduism","i think this is an animal","nice survey",37,"BI2A00021","definitely no",-3,739,"india"
"86","animal","AWEQZZGOOBGV3","grad_some",NA,"asian_southAsian","male",28,"hinduism","i think this is an animal","nice survey",38,"BI2A00011","definitely yes",3,2309,"india"
"87","animal","AWEQZZGOOBGV3","grad_some",NA,"asian_southAsian","male",28,"hinduism","i think this is an animal","nice survey",39,"BI2A00008","definitely yes",3,1468,"india"
"88","animal","AWEQZZGOOBGV3","grad_some",NA,"asian_southAsian","male",28,"hinduism","i think this is an animal","nice survey",40,"BI2A00030","definitely no",-3,1700,"india"
"89","animal","AWEQZZGOOBGV3","grad_some",NA,"asian_southAsian","male",28,"hinduism","i think this is an animal","nice survey",41,"BI2A00013","definitely no",-3,42,"india"
"90","animal","AWEQZZGOOBGV3","grad_some",NA,"asian_southAsian","male",28,"hinduism","i think this is an animal","nice survey",42,"BI2A00006","definitely yes",3,1683,"india"
"91","animal","AWEQZZGOOBGV3","grad_some",NA,"asian_southAsian","male",28,"hinduism","i think this is an animal","nice survey",43,"BI2A00036","definitely no",-3,1463,"india"
"92","animal","AWEQZZGOOBGV3","grad_some",NA,"asian_southAsian","male",28,"hinduism","i think this is an animal","nice survey",44,"BI2A00015","equally yes/no",0,4780,"india"
"93","animal","AWEQZZGOOBGV3","grad_some",NA,"asian_southAsian","male",28,"hinduism","i think this is an animal","nice survey",45,"BI2A00039","definitely no",-3,1429,"india"
"94","animal","AWEQZZGOOBGV3","grad_some",NA,"asian_southAsian","male",28,"hinduism","i think this is an animal","nice survey",46,"BI2A00028","definitely no",-3,1200,"india"
"95","animal","AWEQZZGOOBGV3","grad_some",NA,"asian_southAsian","male",28,"hinduism","i think this is an animal","nice survey",47,"BI2A00031","definitely no",-3,1975,"india"
"96","animal","AWEQZZGOOBGV3","grad_some",NA,"asian_southAsian","male",28,"hinduism","i think this is an animal","nice survey",48,"BI2A00024","definitely yes",3,2011,"india"
"97","animal","A3Z8J9G2CIQ0U","college_bachDegree",NA,"asian_southAsian","female",46,"hinduism","I think that this is an animal","",1,"BI2A00004","definitely yes",3,5645,"india"
"98","animal","A3Z8J9G2CIQ0U","college_bachDegree",NA,"asian_southAsian","female",46,"hinduism","I think that this is an animal","",2,"BI2A00041","definitely no",-3,3461,"india"
"99","animal","A3Z8J9G2CIQ0U","college_bachDegree",NA,"asian_southAsian","female",46,"hinduism","I think that this is an animal","",3,"BI2A00031","definitely no",-3,1757,"india"
"100","animal","A3Z8J9G2CIQ0U","college_bachDegree",NA,"asian_southAsian","female",46,"hinduism","I think that this is an animal","",4,"BI2A00040","definitely no",-3,1510,"india"
"101","animal","A3Z8J9G2CIQ0U","college_bachDegree",NA,"asian_southAsian","female",46,"hinduism","I think that this is an animal","",5,"BI2A00002","definitely yes",3,1925,"india"
"102","animal","A3Z8J9G2CIQ0U","college_bachDegree",NA,"asian_southAsian","female",46,"hinduism","I think that this is an animal","",6,"BI2A00022","definitely no",-3,2838,"india"
"103","animal","A3Z8J9G2CIQ0U","college_bachDegree",NA,"asian_southAsian","female",46,"hinduism","I think that this is an animal","",7,"BI2A00003","definitely yes",3,1808,"india"
"104","animal","A3Z8J9G2CIQ0U","college_bachDegree",NA,"asian_southAsian","female",46,"hinduism","I think that this is an animal","",8,"BI2A00018","definitely no",-3,5454,"india"
"105","animal","A3Z8J9G2CIQ0U","college_bachDegree",NA,"asian_southAsian","female",46,"hinduism","I think that this is an animal","",9,"BI2A00016","probably no",-2,7710,"india"
"106","animal","A3Z8J9G2CIQ0U","college_bachDegree",NA,"asian_southAsian","female",46,"hinduism","I think that this is an animal","",10,"BI2A00023","definitely no",-3,2789,"india"
"107","animal","A3Z8J9G2CIQ0U","college_bachDegree",NA,"asian_southAsian","female",46,"hinduism","I think that this is an animal","",11,"BI2A00021","definitely no",-3,3054,"india"
"108","animal","A3Z8J9G2CIQ0U","college_bachDegree",NA,"asian_southAsian","female",46,"hinduism","I think that this is an animal","",12,"BI2A00046","definitely no",-3,1079,"india"
"109","animal","A3Z8J9G2CIQ0U","college_bachDegree",NA,"asian_southAsian","female",46,"hinduism","I think that this is an animal","",13,"BI2A00011","definitely yes",3,2942,"india"
"110","animal","A3Z8J9G2CIQ0U","college_bachDegree",NA,"asian_southAsian","female",46,"hinduism","I think that this is an animal","",14,"BI2A00007","definitely yes",3,1862,"india"
"111","animal","A3Z8J9G2CIQ0U","college_bachDegree",NA,"asian_southAsian","female",46,"hinduism","I think that this is an animal","",15,"BI2A00042","definitely no",-3,2901,"india"
"112","animal","A3Z8J9G2CIQ0U","college_bachDegree",NA,"asian_southAsian","female",46,"hinduism","I think that this is an animal","",16,"BI2A00026","probably no",-2,3639,"india"
"113","animal","A3Z8J9G2CIQ0U","college_bachDegree",NA,"asian_southAsian","female",46,"hinduism","I think that this is an animal","",17,"BI2A00025","definitely no",-3,2229,"india"
"114","animal","A3Z8J9G2CIQ0U","college_bachDegree",NA,"asian_southAsian","female",46,"hinduism","I think that this is an animal","",18,"BI2A00020","maybe no",-1,6902,"india"
"115","animal","A3Z8J9G2CIQ0U","college_bachDegree",NA,"asian_southAsian","female",46,"hinduism","I think that this is an animal","",19,"BI2A00038","definitely no",-3,2436,"india"
"116","animal","A3Z8J9G2CIQ0U","college_bachDegree",NA,"asian_southAsian","female",46,"hinduism","I think that this is an animal","",20,"BI2A00014","maybe yes",1,5446,"india"
"117","animal","A3Z8J9G2CIQ0U","college_bachDegree",NA,"asian_southAsian","female",46,"hinduism","I think that this is an animal","",21,"BI2A00015","probably yes",2,2398,"india"
"118","animal","A3Z8J9G2CIQ0U","college_bachDegree",NA,"asian_southAsian","female",46,"hinduism","I think that this is an animal","",22,"BI2A00030","definitely no",-3,1518,"india"
"119","animal","A3Z8J9G2CIQ0U","college_bachDegree",NA,"asian_southAsian","female",46,"hinduism","I think that this is an animal","",23,"BI2A00032","definitely no",-3,918,"india"
"120","animal","A3Z8J9G2CIQ0U","college_bachDegree",NA,"asian_southAsian","female",46,"hinduism","I think that this is an animal","",24,"BI2A00009","definitely yes",3,2804,"india"
"121","animal","A3Z8J9G2CIQ0U","college_bachDegree",NA,"asian_southAsian","female",46,"hinduism","I think that this is an animal","",25,"BI2A00017","definitely no",-3,1758,"india"
"122","animal","A3Z8J9G2CIQ0U","college_bachDegree",NA,"asian_southAsian","female",46,"hinduism","I think that this is an animal","",26,"BI2A00028","maybe no",-1,3950,"india"
"123","animal","A3Z8J9G2CIQ0U","college_bachDegree",NA,"asian_southAsian","female",46,"hinduism","I think that this is an animal","",27,"BI2A00035","definitely no",-3,1294,"india"
"124","animal","A3Z8J9G2CIQ0U","college_bachDegree",NA,"asian_southAsian","female",46,"hinduism","I think that this is an animal","",28,"BI2A00006","definitely yes",3,3572,"india"
"125","animal","A3Z8J9G2CIQ0U","college_bachDegree",NA,"asian_southAsian","female",46,"hinduism","I think that this is an animal","",29,"BI2A00001","probably no",-2,4107,"india"
"126","animal","A3Z8J9G2CIQ0U","college_bachDegree",NA,"asian_southAsian","female",46,"hinduism","I think that this is an animal","",30,"BI2A00048","definitely no",-3,1382,"india"
"127","animal","A3Z8J9G2CIQ0U","college_bachDegree",NA,"asian_southAsian","female",46,"hinduism","I think that this is an animal","",31,"BI2A00024","maybe yes",1,8430,"india"
"128","animal","A3Z8J9G2CIQ0U","college_bachDegree",NA,"asian_southAsian","female",46,"hinduism","I think that this is an animal","",32,"BI2A00033","definitely no",-3,1575,"india"
"129","animal","A3Z8J9G2CIQ0U","college_bachDegree",NA,"asian_southAsian","female",46,"hinduism","I think that this is an animal","",33,"BI2A00036","definitely no",-3,1198,"india"
"130","animal","A3Z8J9G2CIQ0U","college_bachDegree",NA,"asian_southAsian","female",46,"hinduism","I think that this is an animal","",34,"BI2A00013","probably yes",2,3119,"india"
"131","animal","A3Z8J9G2CIQ0U","college_bachDegree",NA,"asian_southAsian","female",46,"hinduism","I think that this is an animal","",35,"BI2A00045","definitely no",-3,1597,"india"
"132","animal","A3Z8J9G2CIQ0U","college_bachDegree",NA,"asian_southAsian","female",46,"hinduism","I think that this is an animal","",36,"BI2A00037","definitely no",-3,2333,"india"
"133","animal","A3Z8J9G2CIQ0U","college_bachDegree",NA,"asian_southAsian","female",46,"hinduism","I think that this is an animal","",37,"BI2A00027","definitely no",-3,2206,"india"
"134","animal","A3Z8J9G2CIQ0U","college_bachDegree",NA,"asian_southAsian","female",46,"hinduism","I think that this is an animal","",38,"BI2A00008","definitely yes",3,3733,"india"
"135","animal","A3Z8J9G2CIQ0U","college_bachDegree",NA,"asian_southAsian","female",46,"hinduism","I think that this is an animal","",39,"BI2A00044","definitely no",-3,1606,"india"
"136","animal","A3Z8J9G2CIQ0U","college_bachDegree",NA,"asian_southAsian","female",46,"hinduism","I think that this is an animal","",40,"BI2A00012","maybe no",-1,4975,"india"
"137","animal","A3Z8J9G2CIQ0U","college_bachDegree",NA,"asian_southAsian","female",46,"hinduism","I think that this is an animal","",41,"BI2A00043","definitely no",-3,7751,"india"
"138","animal","A3Z8J9G2CIQ0U","college_bachDegree",NA,"asian_southAsian","female",46,"hinduism","I think that this is an animal","",42,"BI2A00029","definitely no",-3,2449,"india"
"139","animal","A3Z8J9G2CIQ0U","college_bachDegree",NA,"asian_southAsian","female",46,"hinduism","I think that this is an animal","",43,"BI2A00034","definitely no",-3,8,"india"
"140","animal","A3Z8J9G2CIQ0U","college_bachDegree",NA,"asian_southAsian","female",46,"hinduism","I think that this is an animal","",44,"BI2A00005","definitely yes",3,5256,"india"
"141","animal","A3Z8J9G2CIQ0U","college_bachDegree",NA,"asian_southAsian","female",46,"hinduism","I think that this is an animal","",45,"BI2A00010","maybe yes",1,3038,"india"
"142","animal","A3Z8J9G2CIQ0U","college_bachDegree",NA,"asian_southAsian","female",46,"hinduism","I think that this is an animal","",46,"BI2A00019","probably yes",2,1838,"india"
"143","animal","A3Z8J9G2CIQ0U","college_bachDegree",NA,"asian_southAsian","female",46,"hinduism","I think that this is an animal","",47,"BI2A00047","definitely no",-3,2382,"india"
"144","animal","A3Z8J9G2CIQ0U","college_bachDegree",NA,"asian_southAsian","female",46,"hinduism","I think that this is an animal","",48,"BI2A00039","definitely no",-3,998,"india"
"145","animal","AUD3A4YDWWZCY","grad_degree",NA,"asian_southAsian","female",36,"hinduism","I THINK THE PICTURE SHOWN IS AN ANIMAL","NOTHING TO SAY EVERYTHING IS GOOD IN THIS SURVEY",1,"BI2A00028","definitely yes",3,7271,"india"
"146","animal","AUD3A4YDWWZCY","grad_degree",NA,"asian_southAsian","female",36,"hinduism","I THINK THE PICTURE SHOWN IS AN ANIMAL","NOTHING TO SAY EVERYTHING IS GOOD IN THIS SURVEY",2,"BI2A00021","maybe yes",1,4275,"india"
"147","animal","AUD3A4YDWWZCY","grad_degree",NA,"asian_southAsian","female",36,"hinduism","I THINK THE PICTURE SHOWN IS AN ANIMAL","NOTHING TO SAY EVERYTHING IS GOOD IN THIS SURVEY",3,"BI2A00024","definitely yes",3,3477,"india"
"148","animal","AUD3A4YDWWZCY","grad_degree",NA,"asian_southAsian","female",36,"hinduism","I THINK THE PICTURE SHOWN IS AN ANIMAL","NOTHING TO SAY EVERYTHING IS GOOD IN THIS SURVEY",4,"BI2A00026","maybe yes",1,3765,"india"
"149","animal","AUD3A4YDWWZCY","grad_degree",NA,"asian_southAsian","female",36,"hinduism","I THINK THE PICTURE SHOWN IS AN ANIMAL","NOTHING TO SAY EVERYTHING IS GOOD IN THIS SURVEY",5,"BI2A00019","definitely yes",3,5637,"india"
"150","animal","AUD3A4YDWWZCY","grad_degree",NA,"asian_southAsian","female",36,"hinduism","I THINK THE PICTURE SHOWN IS AN ANIMAL","NOTHING TO SAY EVERYTHING IS GOOD IN THIS SURVEY",6,"BI2A00020","definitely yes",3,2190,"india"
"151","animal","AUD3A4YDWWZCY","grad_degree",NA,"asian_southAsian","female",36,"hinduism","I THINK THE PICTURE SHOWN IS AN ANIMAL","NOTHING TO SAY EVERYTHING IS GOOD IN THIS SURVEY",7,"BI2A00042","definitely no",-3,3484,"india"
"152","animal","AUD3A4YDWWZCY","grad_degree",NA,"asian_southAsian","female",36,"hinduism","I THINK THE PICTURE SHOWN IS AN ANIMAL","NOTHING TO SAY EVERYTHING IS GOOD IN THIS SURVEY",8,"BI2A00006","definitely yes",3,1989,"india"
"153","animal","AUD3A4YDWWZCY","grad_degree",NA,"asian_southAsian","female",36,"hinduism","I THINK THE PICTURE SHOWN IS AN ANIMAL","NOTHING TO SAY EVERYTHING IS GOOD IN THIS SURVEY",9,"BI2A00032","maybe no",-1,3397,"india"
"154","animal","AUD3A4YDWWZCY","grad_degree",NA,"asian_southAsian","female",36,"hinduism","I THINK THE PICTURE SHOWN IS AN ANIMAL","NOTHING TO SAY EVERYTHING IS GOOD IN THIS SURVEY",10,"BI2A00002","definitely yes",3,1725,"india"
"155","animal","AUD3A4YDWWZCY","grad_degree",NA,"asian_southAsian","female",36,"hinduism","I THINK THE PICTURE SHOWN IS AN ANIMAL","NOTHING TO SAY EVERYTHING IS GOOD IN THIS SURVEY",11,"BI2A00012","probably no",-2,4774,"india"
"156","animal","AUD3A4YDWWZCY","grad_degree",NA,"asian_southAsian","female",36,"hinduism","I THINK THE PICTURE SHOWN IS AN ANIMAL","NOTHING TO SAY EVERYTHING IS GOOD IN THIS SURVEY",12,"BI2A00015","definitely yes",3,1614,"india"
"157","animal","AUD3A4YDWWZCY","grad_degree",NA,"asian_southAsian","female",36,"hinduism","I THINK THE PICTURE SHOWN IS AN ANIMAL","NOTHING TO SAY EVERYTHING IS GOOD IN THIS SURVEY",13,"BI2A00025","definitely yes",3,141,"india"
"158","animal","AUD3A4YDWWZCY","grad_degree",NA,"asian_southAsian","female",36,"hinduism","I THINK THE PICTURE SHOWN IS AN ANIMAL","NOTHING TO SAY EVERYTHING IS GOOD IN THIS SURVEY",14,"BI2A00035","probably no",-2,5397,"india"
"159","animal","AUD3A4YDWWZCY","grad_degree",NA,"asian_southAsian","female",36,"hinduism","I THINK THE PICTURE SHOWN IS AN ANIMAL","NOTHING TO SAY EVERYTHING IS GOOD IN THIS SURVEY",15,"BI2A00010","definitely yes",3,2653,"india"
"160","animal","AUD3A4YDWWZCY","grad_degree",NA,"asian_southAsian","female",36,"hinduism","I THINK THE PICTURE SHOWN IS AN ANIMAL","NOTHING TO SAY EVERYTHING IS GOOD IN THIS SURVEY",16,"BI2A00001","probably yes",2,3213,"india"
"161","animal","AUD3A4YDWWZCY","grad_degree",NA,"asian_southAsian","female",36,"hinduism","I THINK THE PICTURE SHOWN IS AN ANIMAL","NOTHING TO SAY EVERYTHING IS GOOD IN THIS SURVEY",17,"BI2A00029","definitely yes",3,3531,"india"
"162","animal","AUD3A4YDWWZCY","grad_degree",NA,"asian_southAsian","female",36,"hinduism","I THINK THE PICTURE SHOWN IS AN ANIMAL","NOTHING TO SAY EVERYTHING IS GOOD IN THIS SURVEY",18,"BI2A00018","definitely no",-3,2245,"india"
"163","animal","AUD3A4YDWWZCY","grad_degree",NA,"asian_southAsian","female",36,"hinduism","I THINK THE PICTURE SHOWN IS AN ANIMAL","NOTHING TO SAY EVERYTHING IS GOOD IN THIS SURVEY",19,"BI2A00039","definitely no",-3,125,"india"
"164","animal","AUD3A4YDWWZCY","grad_degree",NA,"asian_southAsian","female",36,"hinduism","I THINK THE PICTURE SHOWN IS AN ANIMAL","NOTHING TO SAY EVERYTHING IS GOOD IN THIS SURVEY",20,"BI2A00038","definitely no",-3,2910,"india"
"165","animal","AUD3A4YDWWZCY","grad_degree",NA,"asian_southAsian","female",36,"hinduism","I THINK THE PICTURE SHOWN IS AN ANIMAL","NOTHING TO SAY EVERYTHING IS GOOD IN THIS SURVEY",21,"BI2A00004","definitely yes",3,2029,"india"
"166","animal","AUD3A4YDWWZCY","grad_degree",NA,"asian_southAsian","female",36,"hinduism","I THINK THE PICTURE SHOWN IS AN ANIMAL","NOTHING TO SAY EVERYTHING IS GOOD IN THIS SURVEY",22,"BI2A00048","definitely no",-3,3139,"india"
"167","animal","AUD3A4YDWWZCY","grad_degree",NA,"asian_southAsian","female",36,"hinduism","I THINK THE PICTURE SHOWN IS AN ANIMAL","NOTHING TO SAY EVERYTHING IS GOOD IN THIS SURVEY",23,"BI2A00003","definitely yes",3,1501,"india"
"168","animal","AUD3A4YDWWZCY","grad_degree",NA,"asian_southAsian","female",36,"hinduism","I THINK THE PICTURE SHOWN IS AN ANIMAL","NOTHING TO SAY EVERYTHING IS GOOD IN THIS SURVEY",24,"BI2A00033","definitely no",-3,2197,"india"
"169","animal","AUD3A4YDWWZCY","grad_degree",NA,"asian_southAsian","female",36,"hinduism","I THINK THE PICTURE SHOWN IS AN ANIMAL","NOTHING TO SAY EVERYTHING IS GOOD IN THIS SURVEY",25,"BI2A00040","definitely no",-3,2525,"india"
"170","animal","AUD3A4YDWWZCY","grad_degree",NA,"asian_southAsian","female",36,"hinduism","I THINK THE PICTURE SHOWN IS AN ANIMAL","NOTHING TO SAY EVERYTHING IS GOOD IN THIS SURVEY",26,"BI2A00046","definitely no",-3,1795,"india"
"171","animal","AUD3A4YDWWZCY","grad_degree",NA,"asian_southAsian","female",36,"hinduism","I THINK THE PICTURE SHOWN IS AN ANIMAL","NOTHING TO SAY EVERYTHING IS GOOD IN THIS SURVEY",27,"BI2A00031","definitely no",-3,1550,"india"
"172","animal","AUD3A4YDWWZCY","grad_degree",NA,"asian_southAsian","female",36,"hinduism","I THINK THE PICTURE SHOWN IS AN ANIMAL","NOTHING TO SAY EVERYTHING IS GOOD IN THIS SURVEY",28,"BI2A00045","definitely no",-3,1107,"india"
"173","animal","AUD3A4YDWWZCY","grad_degree",NA,"asian_southAsian","female",36,"hinduism","I THINK THE PICTURE SHOWN IS AN ANIMAL","NOTHING TO SAY EVERYTHING IS GOOD IN THIS SURVEY",29,"BI2A00023","definitely no",-3,1237,"india"
"174","animal","AUD3A4YDWWZCY","grad_degree",NA,"asian_southAsian","female",36,"hinduism","I THINK THE PICTURE SHOWN IS AN ANIMAL","NOTHING TO SAY EVERYTHING IS GOOD IN THIS SURVEY",30,"BI2A00011","definitely yes",3,2054,"india"
"175","animal","AUD3A4YDWWZCY","grad_degree",NA,"asian_southAsian","female",36,"hinduism","I THINK THE PICTURE SHOWN IS AN ANIMAL","NOTHING TO SAY EVERYTHING IS GOOD IN THIS SURVEY",31,"BI2A00005","definitely yes",3,1318,"india"
"176","animal","AUD3A4YDWWZCY","grad_degree",NA,"asian_southAsian","female",36,"hinduism","I THINK THE PICTURE SHOWN IS AN ANIMAL","NOTHING TO SAY EVERYTHING IS GOOD IN THIS SURVEY",32,"BI2A00008","definitely yes",3,918,"india"
"177","animal","AUD3A4YDWWZCY","grad_degree",NA,"asian_southAsian","female",36,"hinduism","I THINK THE PICTURE SHOWN IS AN ANIMAL","NOTHING TO SAY EVERYTHING IS GOOD IN THIS SURVEY",33,"BI2A00030","definitely no",-3,1846,"india"
"178","animal","AUD3A4YDWWZCY","grad_degree",NA,"asian_southAsian","female",36,"hinduism","I THINK THE PICTURE SHOWN IS AN ANIMAL","NOTHING TO SAY EVERYTHING IS GOOD IN THIS SURVEY",34,"BI2A00027","definitely no",-3,7462,"india"
"179","animal","AUD3A4YDWWZCY","grad_degree",NA,"asian_southAsian","female",36,"hinduism","I THINK THE PICTURE SHOWN IS AN ANIMAL","NOTHING TO SAY EVERYTHING IS GOOD IN THIS SURVEY",35,"BI2A00009","definitely yes",3,1478,"india"
"180","animal","AUD3A4YDWWZCY","grad_degree",NA,"asian_southAsian","female",36,"hinduism","I THINK THE PICTURE SHOWN IS AN ANIMAL","NOTHING TO SAY EVERYTHING IS GOOD IN THIS SURVEY",36,"BI2A00036","definitely no",-3,4205,"india"
"181","animal","AUD3A4YDWWZCY","grad_degree",NA,"asian_southAsian","female",36,"hinduism","I THINK THE PICTURE SHOWN IS AN ANIMAL","NOTHING TO SAY EVERYTHING IS GOOD IN THIS SURVEY",37,"BI2A00034","definitely yes",3,1589,"india"
"182","animal","AUD3A4YDWWZCY","grad_degree",NA,"asian_southAsian","female",36,"hinduism","I THINK THE PICTURE SHOWN IS AN ANIMAL","NOTHING TO SAY EVERYTHING IS GOOD IN THIS SURVEY",38,"BI2A00047","probably no",-2,1868,"india"
"183","animal","AUD3A4YDWWZCY","grad_degree",NA,"asian_southAsian","female",36,"hinduism","I THINK THE PICTURE SHOWN IS AN ANIMAL","NOTHING TO SAY EVERYTHING IS GOOD IN THIS SURVEY",39,"BI2A00013","definitely yes",3,1493,"india"
"184","animal","AUD3A4YDWWZCY","grad_degree",NA,"asian_southAsian","female",36,"hinduism","I THINK THE PICTURE SHOWN IS AN ANIMAL","NOTHING TO SAY EVERYTHING IS GOOD IN THIS SURVEY",40,"BI2A00044","maybe no",-1,2517,"india"
"185","animal","AUD3A4YDWWZCY","grad_degree",NA,"asian_southAsian","female",36,"hinduism","I THINK THE PICTURE SHOWN IS AN ANIMAL","NOTHING TO SAY EVERYTHING IS GOOD IN THIS SURVEY",41,"BI2A00014","definitely yes",3,1533,"india"
"186","animal","AUD3A4YDWWZCY","grad_degree",NA,"asian_southAsian","female",36,"hinduism","I THINK THE PICTURE SHOWN IS AN ANIMAL","NOTHING TO SAY EVERYTHING IS GOOD IN THIS SURVEY",42,"BI2A00037","probably no",-2,3006,"india"
"187","animal","AUD3A4YDWWZCY","grad_degree",NA,"asian_southAsian","female",36,"hinduism","I THINK THE PICTURE SHOWN IS AN ANIMAL","NOTHING TO SAY EVERYTHING IS GOOD IN THIS SURVEY",43,"BI2A00022","definitely yes",3,1871,"india"
"188","animal","AUD3A4YDWWZCY","grad_degree",NA,"asian_southAsian","female",36,"hinduism","I THINK THE PICTURE SHOWN IS AN ANIMAL","NOTHING TO SAY EVERYTHING IS GOOD IN THIS SURVEY",44,"BI2A00007","definitely yes",3,934,"india"
"189","animal","AUD3A4YDWWZCY","grad_degree",NA,"asian_southAsian","female",36,"hinduism","I THINK THE PICTURE SHOWN IS AN ANIMAL","NOTHING TO SAY EVERYTHING IS GOOD IN THIS SURVEY",45,"BI2A00017","definitely no",-3,3062,"india"
"190","animal","AUD3A4YDWWZCY","grad_degree",NA,"asian_southAsian","female",36,"hinduism","I THINK THE PICTURE SHOWN IS AN ANIMAL","NOTHING TO SAY EVERYTHING IS GOOD IN THIS SURVEY",46,"BI2A00043","definitely no",-3,3662,"india"
"191","animal","AUD3A4YDWWZCY","grad_degree",NA,"asian_southAsian","female",36,"hinduism","I THINK THE PICTURE SHOWN IS AN ANIMAL","NOTHING TO SAY EVERYTHING IS GOOD IN THIS SURVEY",47,"BI2A00041","definitely no",-3,2126,"india"
"192","animal","AUD3A4YDWWZCY","grad_degree",NA,"asian_southAsian","female",36,"hinduism","I THINK THE PICTURE SHOWN IS AN ANIMAL","NOTHING TO SAY EVERYTHING IS GOOD IN THIS SURVEY",48,"BI2A00016","probably yes",2,2286,"india"
"193","animal","AOSB3RSWQQENC","grad_degree",NA,"asian_southAsian","female",59,"hinduism","In my opinion, the picture shows an animal.","After the user gives an answer, you can show whether it was correct or not.",1,"BI2A00001","probably yes",2,8612,"india"
"194","animal","AOSB3RSWQQENC","grad_degree",NA,"asian_southAsian","female",59,"hinduism","In my opinion, the picture shows an animal.","After the user gives an answer, you can show whether it was correct or not.",2,"BI2A00039","probably yes",2,12355,"india"
"195","animal","AOSB3RSWQQENC","grad_degree",NA,"asian_southAsian","female",59,"hinduism","In my opinion, the picture shows an animal.","After the user gives an answer, you can show whether it was correct or not.",3,"BI2A00026","maybe no",-1,8843,"india"
"196","animal","AOSB3RSWQQENC","grad_degree",NA,"asian_southAsian","female",59,"hinduism","In my opinion, the picture shows an animal.","After the user gives an answer, you can show whether it was correct or not.",4,"BI2A00042","maybe no",-1,3711,"india"
"197","animal","AOSB3RSWQQENC","grad_degree",NA,"asian_southAsian","female",59,"hinduism","In my opinion, the picture shows an animal.","After the user gives an answer, you can show whether it was correct or not.",5,"BI2A00047","maybe no",-1,7608,"india"
"198","animal","AOSB3RSWQQENC","grad_degree",NA,"asian_southAsian","female",59,"hinduism","In my opinion, the picture shows an animal.","After the user gives an answer, you can show whether it was correct or not.",6,"BI2A00008","definitely yes",3,3698,"india"
"199","animal","AOSB3RSWQQENC","grad_degree",NA,"asian_southAsian","female",59,"hinduism","In my opinion, the picture shows an animal.","After the user gives an answer, you can show whether it was correct or not.",7,"BI2A00019","equally yes/no",0,5441,"india"
"200","animal","AOSB3RSWQQENC","grad_degree",NA,"asian_southAsian","female",59,"hinduism","In my opinion, the picture shows an animal.","After the user gives an answer, you can show whether it was correct or not.",8,"BI2A00005","probably yes",2,2979,"india"
"201","animal","AOSB3RSWQQENC","grad_degree",NA,"asian_southAsian","female",59,"hinduism","In my opinion, the picture shows an animal.","After the user gives an answer, you can show whether it was correct or not.",9,"BI2A00046","probably yes",2,1970,"india"
"202","animal","AOSB3RSWQQENC","grad_degree",NA,"asian_southAsian","female",59,"hinduism","In my opinion, the picture shows an animal.","After the user gives an answer, you can show whether it was correct or not.",10,"BI2A00032","probably yes",2,3009,"india"
"203","animal","AOSB3RSWQQENC","grad_degree",NA,"asian_southAsian","female",59,"hinduism","In my opinion, the picture shows an animal.","After the user gives an answer, you can show whether it was correct or not.",11,"BI2A00048","definitely no",-3,2676,"india"
"204","animal","AOSB3RSWQQENC","grad_degree",NA,"asian_southAsian","female",59,"hinduism","In my opinion, the picture shows an animal.","After the user gives an answer, you can show whether it was correct or not.",12,"BI2A00033","definitely no",-3,3302,"india"
"205","animal","AOSB3RSWQQENC","grad_degree",NA,"asian_southAsian","female",59,"hinduism","In my opinion, the picture shows an animal.","After the user gives an answer, you can show whether it was correct or not.",13,"BI2A00045","definitely no",-3,2639,"india"
"206","animal","AOSB3RSWQQENC","grad_degree",NA,"asian_southAsian","female",59,"hinduism","In my opinion, the picture shows an animal.","After the user gives an answer, you can show whether it was correct or not.",14,"BI2A00031","definitely no",-3,2950,"india"
"207","animal","AOSB3RSWQQENC","grad_degree",NA,"asian_southAsian","female",59,"hinduism","In my opinion, the picture shows an animal.","After the user gives an answer, you can show whether it was correct or not.",15,"BI2A00030","definitely no",-3,1957,"india"
"208","animal","AOSB3RSWQQENC","grad_degree",NA,"asian_southAsian","female",59,"hinduism","In my opinion, the picture shows an animal.","After the user gives an answer, you can show whether it was correct or not.",16,"BI2A00007","probably yes",2,3824,"india"
"209","animal","AOSB3RSWQQENC","grad_degree",NA,"asian_southAsian","female",59,"hinduism","In my opinion, the picture shows an animal.","After the user gives an answer, you can show whether it was correct or not.",17,"BI2A00041","definitely no",-3,3196,"india"
"210","animal","AOSB3RSWQQENC","grad_degree",NA,"asian_southAsian","female",59,"hinduism","In my opinion, the picture shows an animal.","After the user gives an answer, you can show whether it was correct or not.",18,"BI2A00038","definitely no",-3,1628,"india"
"211","animal","AOSB3RSWQQENC","grad_degree",NA,"asian_southAsian","female",59,"hinduism","In my opinion, the picture shows an animal.","After the user gives an answer, you can show whether it was correct or not.",19,"BI2A00012","definitely no",-3,3107,"india"
"212","animal","AOSB3RSWQQENC","grad_degree",NA,"asian_southAsian","female",59,"hinduism","In my opinion, the picture shows an animal.","After the user gives an answer, you can show whether it was correct or not.",20,"BI2A00006","definitely yes",3,4847,"india"
"213","animal","AOSB3RSWQQENC","grad_degree",NA,"asian_southAsian","female",59,"hinduism","In my opinion, the picture shows an animal.","After the user gives an answer, you can show whether it was correct or not.",21,"BI2A00028","probably no",-2,8583,"india"
"214","animal","AOSB3RSWQQENC","grad_degree",NA,"asian_southAsian","female",59,"hinduism","In my opinion, the picture shows an animal.","After the user gives an answer, you can show whether it was correct or not.",22,"BI2A00037","definitely no",-3,2895,"india"
"215","animal","AOSB3RSWQQENC","grad_degree",NA,"asian_southAsian","female",59,"hinduism","In my opinion, the picture shows an animal.","After the user gives an answer, you can show whether it was correct or not.",23,"BI2A00035","definitely no",-3,1799,"india"
"216","animal","AOSB3RSWQQENC","grad_degree",NA,"asian_southAsian","female",59,"hinduism","In my opinion, the picture shows an animal.","After the user gives an answer, you can show whether it was correct or not.",24,"BI2A00015","maybe yes",1,4143,"india"
"217","animal","AOSB3RSWQQENC","grad_degree",NA,"asian_southAsian","female",59,"hinduism","In my opinion, the picture shows an animal.","After the user gives an answer, you can show whether it was correct or not.",25,"BI2A00017","probably no",-2,2275,"india"
"218","animal","AOSB3RSWQQENC","grad_degree",NA,"asian_southAsian","female",59,"hinduism","In my opinion, the picture shows an animal.","After the user gives an answer, you can show whether it was correct or not.",26,"BI2A00010","definitely no",-3,2447,"india"
"219","animal","AOSB3RSWQQENC","grad_degree",NA,"asian_southAsian","female",59,"hinduism","In my opinion, the picture shows an animal.","After the user gives an answer, you can show whether it was correct or not.",27,"BI2A00029","definitely no",-3,3558,"india"
"220","animal","AOSB3RSWQQENC","grad_degree",NA,"asian_southAsian","female",59,"hinduism","In my opinion, the picture shows an animal.","After the user gives an answer, you can show whether it was correct or not.",28,"BI2A00025","definitely no",-3,2038,"india"
"221","animal","AOSB3RSWQQENC","grad_degree",NA,"asian_southAsian","female",59,"hinduism","In my opinion, the picture shows an animal.","After the user gives an answer, you can show whether it was correct or not.",29,"BI2A00023","definitely no",-3,1797,"india"
"222","animal","AOSB3RSWQQENC","grad_degree",NA,"asian_southAsian","female",59,"hinduism","In my opinion, the picture shows an animal.","After the user gives an answer, you can show whether it was correct or not.",30,"BI2A00040","definitely no",-3,2704,"india"
"223","animal","AOSB3RSWQQENC","grad_degree",NA,"asian_southAsian","female",59,"hinduism","In my opinion, the picture shows an animal.","After the user gives an answer, you can show whether it was correct or not.",31,"BI2A00014","probably no",-2,2987,"india"
"224","animal","AOSB3RSWQQENC","grad_degree",NA,"asian_southAsian","female",59,"hinduism","In my opinion, the picture shows an animal.","After the user gives an answer, you can show whether it was correct or not.",32,"BI2A00003","probably yes",2,2659,"india"
"225","animal","AOSB3RSWQQENC","grad_degree",NA,"asian_southAsian","female",59,"hinduism","In my opinion, the picture shows an animal.","After the user gives an answer, you can show whether it was correct or not.",33,"BI2A00027","definitely no",-3,4573,"india"
"226","animal","AOSB3RSWQQENC","grad_degree",NA,"asian_southAsian","female",59,"hinduism","In my opinion, the picture shows an animal.","After the user gives an answer, you can show whether it was correct or not.",34,"BI2A00004","probably yes",2,6813,"india"
"227","animal","AOSB3RSWQQENC","grad_degree",NA,"asian_southAsian","female",59,"hinduism","In my opinion, the picture shows an animal.","After the user gives an answer, you can show whether it was correct or not.",35,"BI2A00011","definitely yes",3,4564,"india"
"228","animal","AOSB3RSWQQENC","grad_degree",NA,"asian_southAsian","female",59,"hinduism","In my opinion, the picture shows an animal.","After the user gives an answer, you can show whether it was correct or not.",36,"BI2A00034","probably no",-2,3443,"india"
"229","animal","AOSB3RSWQQENC","grad_degree",NA,"asian_southAsian","female",59,"hinduism","In my opinion, the picture shows an animal.","After the user gives an answer, you can show whether it was correct or not.",37,"BI2A00013","definitely yes",3,3078,"india"
"230","animal","AOSB3RSWQQENC","grad_degree",NA,"asian_southAsian","female",59,"hinduism","In my opinion, the picture shows an animal.","After the user gives an answer, you can show whether it was correct or not.",38,"BI2A00018","definitely no",-3,1880,"india"
"231","animal","AOSB3RSWQQENC","grad_degree",NA,"asian_southAsian","female",59,"hinduism","In my opinion, the picture shows an animal.","After the user gives an answer, you can show whether it was correct or not.",39,"BI2A00020","maybe yes",1,3771,"india"
"232","animal","AOSB3RSWQQENC","grad_degree",NA,"asian_southAsian","female",59,"hinduism","In my opinion, the picture shows an animal.","After the user gives an answer, you can show whether it was correct or not.",40,"BI2A00022","probably no",-2,5439,"india"
"233","animal","AOSB3RSWQQENC","grad_degree",NA,"asian_southAsian","female",59,"hinduism","In my opinion, the picture shows an animal.","After the user gives an answer, you can show whether it was correct or not.",41,"BI2A00021","definitely no",-3,2638,"india"
"234","animal","AOSB3RSWQQENC","grad_degree",NA,"asian_southAsian","female",59,"hinduism","In my opinion, the picture shows an animal.","After the user gives an answer, you can show whether it was correct or not.",42,"BI2A00044","definitely no",-3,1994,"india"
"235","animal","AOSB3RSWQQENC","grad_degree",NA,"asian_southAsian","female",59,"hinduism","In my opinion, the picture shows an animal.","After the user gives an answer, you can show whether it was correct or not.",43,"BI2A00024","definitely no",-3,2651,"india"
"236","animal","AOSB3RSWQQENC","grad_degree",NA,"asian_southAsian","female",59,"hinduism","In my opinion, the picture shows an animal.","After the user gives an answer, you can show whether it was correct or not.",44,"BI2A00036","definitely no",-3,4255,"india"
"237","animal","AOSB3RSWQQENC","grad_degree",NA,"asian_southAsian","female",59,"hinduism","In my opinion, the picture shows an animal.","After the user gives an answer, you can show whether it was correct or not.",45,"BI2A00009","probably yes",2,2300,"india"
"238","animal","AOSB3RSWQQENC","grad_degree",NA,"asian_southAsian","female",59,"hinduism","In my opinion, the picture shows an animal.","After the user gives an answer, you can show whether it was correct or not.",46,"BI2A00043","definitely no",-3,3457,"india"
"239","animal","AOSB3RSWQQENC","grad_degree",NA,"asian_southAsian","female",59,"hinduism","In my opinion, the picture shows an animal.","After the user gives an answer, you can show whether it was correct or not.",47,"BI2A00002","definitely yes",3,2730,"india"
"240","animal","AOSB3RSWQQENC","grad_degree",NA,"asian_southAsian","female",59,"hinduism","In my opinion, the picture shows an animal.","After the user gives an answer, you can show whether it was correct or not.",48,"BI2A00016","probably yes",2,2302,"india"
"241","animal","A1VHDSMEYZDNPL","college_bachDegree",NA,"asian_southAsian","male",25,"hinduism","lion","good survey. i like that",1,"BI2A00030","definitely no",-3,24484,"india"
"242","animal","A1VHDSMEYZDNPL","college_bachDegree",NA,"asian_southAsian","male",25,"hinduism","lion","good survey. i like that",2,"BI2A00047","definitely no",-3,868,"india"
"243","animal","A1VHDSMEYZDNPL","college_bachDegree",NA,"asian_southAsian","male",25,"hinduism","lion","good survey. i like that",3,"BI2A00001","probably yes",2,16639,"india"
"244","animal","A1VHDSMEYZDNPL","college_bachDegree",NA,"asian_southAsian","male",25,"hinduism","lion","good survey. i like that",4,"BI2A00034","probably yes",2,7876,"india"
"245","animal","A1VHDSMEYZDNPL","college_bachDegree",NA,"asian_southAsian","male",25,"hinduism","lion","good survey. i like that",5,"BI2A00028","maybe yes",1,15783,"india"
"246","animal","A1VHDSMEYZDNPL","college_bachDegree",NA,"asian_southAsian","male",25,"hinduism","lion","good survey. i like that",6,"BI2A00007","maybe yes",1,7993,"india"
"247","animal","A1VHDSMEYZDNPL","college_bachDegree",NA,"asian_southAsian","male",25,"hinduism","lion","good survey. i like that",7,"BI2A00008","probably yes",2,2086,"india"
"248","animal","A1VHDSMEYZDNPL","college_bachDegree",NA,"asian_southAsian","male",25,"hinduism","lion","good survey. i like that",8,"BI2A00004","maybe yes",1,5510,"india"
"249","animal","A1VHDSMEYZDNPL","college_bachDegree",NA,"asian_southAsian","male",25,"hinduism","lion","good survey. i like that",9,"BI2A00044","definitely no",-3,55704,"india"
"250","animal","A1VHDSMEYZDNPL","college_bachDegree",NA,"asian_southAsian","male",25,"hinduism","lion","good survey. i like that",10,"BI2A00041","definitely no",-3,2635,"india"
"251","animal","A1VHDSMEYZDNPL","college_bachDegree",NA,"asian_southAsian","male",25,"hinduism","lion","good survey. i like that",11,"BI2A00035","definitely no",-3,1363,"india"
"252","animal","A1VHDSMEYZDNPL","college_bachDegree",NA,"asian_southAsian","male",25,"hinduism","lion","good survey. i like that",12,"BI2A00039","definitely no",-3,1405,"india"
"253","animal","A1VHDSMEYZDNPL","college_bachDegree",NA,"asian_southAsian","male",25,"hinduism","lion","good survey. i like that",13,"BI2A00032","definitely no",-3,1870,"india"
"254","animal","A1VHDSMEYZDNPL","college_bachDegree",NA,"asian_southAsian","male",25,"hinduism","lion","good survey. i like that",14,"BI2A00013","maybe yes",1,5076,"india"
"255","animal","A1VHDSMEYZDNPL","college_bachDegree",NA,"asian_southAsian","male",25,"hinduism","lion","good survey. i like that",15,"BI2A00010","definitely no",-3,2254,"india"
"256","animal","A1VHDSMEYZDNPL","college_bachDegree",NA,"asian_southAsian","male",25,"hinduism","lion","good survey. i like that",16,"BI2A00043","definitely no",-3,1670,"india"
"257","animal","A1VHDSMEYZDNPL","college_bachDegree",NA,"asian_southAsian","male",25,"hinduism","lion","good survey. i like that",17,"BI2A00002","equally yes/no",0,4223,"india"
"258","animal","A1VHDSMEYZDNPL","college_bachDegree",NA,"asian_southAsian","male",25,"hinduism","lion","good survey. i like that",18,"BI2A00009","equally yes/no",0,1742,"india"
"259","animal","A1VHDSMEYZDNPL","college_bachDegree",NA,"asian_southAsian","male",25,"hinduism","lion","good survey. i like that",19,"BI2A00027","definitely no",-3,1717,"india"
"260","animal","A1VHDSMEYZDNPL","college_bachDegree",NA,"asian_southAsian","male",25,"hinduism","lion","good survey. i like that",20,"BI2A00045","definitely no",-3,2314,"india"
"261","animal","A1VHDSMEYZDNPL","college_bachDegree",NA,"asian_southAsian","male",25,"hinduism","lion","good survey. i like that",21,"BI2A00003","maybe yes",1,2175,"india"
"262","animal","A1VHDSMEYZDNPL","college_bachDegree",NA,"asian_southAsian","male",25,"hinduism","lion","good survey. i like that",22,"BI2A00016","equally yes/no",0,2860,"india"
"263","animal","A1VHDSMEYZDNPL","college_bachDegree",NA,"asian_southAsian","male",25,"hinduism","lion","good survey. i like that",23,"BI2A00046","definitely no",-3,1188,"india"
"264","animal","A1VHDSMEYZDNPL","college_bachDegree",NA,"asian_southAsian","male",25,"hinduism","lion","good survey. i like that",24,"BI2A00022","definitely no",-3,916,"india"
"265","animal","A1VHDSMEYZDNPL","college_bachDegree",NA,"asian_southAsian","male",25,"hinduism","lion","good survey. i like that",25,"BI2A00023","definitely no",-3,845,"india"
"266","animal","A1VHDSMEYZDNPL","college_bachDegree",NA,"asian_southAsian","male",25,"hinduism","lion","good survey. i like that",26,"BI2A00048","definitely no",-3,1411,"india"
"267","animal","A1VHDSMEYZDNPL","college_bachDegree",NA,"asian_southAsian","male",25,"hinduism","lion","good survey. i like that",27,"BI2A00025","definitely no",-3,1613,"india"
"268","animal","A1VHDSMEYZDNPL","college_bachDegree",NA,"asian_southAsian","male",25,"hinduism","lion","good survey. i like that",28,"BI2A00012","definitely no",-3,1780,"india"
"269","animal","A1VHDSMEYZDNPL","college_bachDegree",NA,"asian_southAsian","male",25,"hinduism","lion","good survey. i like that",29,"BI2A00036","definitely no",-3,781,"india"
"270","animal","A1VHDSMEYZDNPL","college_bachDegree",NA,"asian_southAsian","male",25,"hinduism","lion","good survey. i like that",30,"BI2A00018","definitely no",-3,830,"india"
"271","animal","A1VHDSMEYZDNPL","college_bachDegree",NA,"asian_southAsian","male",25,"hinduism","lion","good survey. i like that",31,"BI2A00011","definitely no",-3,1334,"india"
"272","animal","A1VHDSMEYZDNPL","college_bachDegree",NA,"asian_southAsian","male",25,"hinduism","lion","good survey. i like that",32,"BI2A00033","definitely no",-3,5381,"india"
"273","animal","A1VHDSMEYZDNPL","college_bachDegree",NA,"asian_southAsian","male",25,"hinduism","lion","good survey. i like that",33,"BI2A00042","definitely no",-3,1671,"india"
"274","animal","A1VHDSMEYZDNPL","college_bachDegree",NA,"asian_southAsian","male",25,"hinduism","lion","good survey. i like that",34,"BI2A00021","definitely no",-3,775,"india"
"275","animal","A1VHDSMEYZDNPL","college_bachDegree",NA,"asian_southAsian","male",25,"hinduism","lion","good survey. i like that",35,"BI2A00020","equally yes/no",0,3431,"india"
"276","animal","A1VHDSMEYZDNPL","college_bachDegree",NA,"asian_southAsian","male",25,"hinduism","lion","good survey. i like that",36,"BI2A00019","equally yes/no",0,1934,"india"
"277","animal","A1VHDSMEYZDNPL","college_bachDegree",NA,"asian_southAsian","male",25,"hinduism","lion","good survey. i like that",37,"BI2A00017","definitely no",-3,1223,"india"
"278","animal","A1VHDSMEYZDNPL","college_bachDegree",NA,"asian_southAsian","male",25,"hinduism","lion","good survey. i like that",38,"BI2A00014","equally yes/no",0,3542,"india"
"279","animal","A1VHDSMEYZDNPL","college_bachDegree",NA,"asian_southAsian","male",25,"hinduism","lion","good survey. i like that",39,"BI2A00031","definitely no",-3,1358,"india"
"280","animal","A1VHDSMEYZDNPL","college_bachDegree",NA,"asian_southAsian","male",25,"hinduism","lion","good survey. i like that",40,"BI2A00024","definitely no",-3,902,"india"
"281","animal","A1VHDSMEYZDNPL","college_bachDegree",NA,"asian_southAsian","male",25,"hinduism","lion","good survey. i like that",41,"BI2A00040","definitely no",-3,990,"india"
"282","animal","A1VHDSMEYZDNPL","college_bachDegree",NA,"asian_southAsian","male",25,"hinduism","lion","good survey. i like that",42,"BI2A00005","maybe yes",1,2261,"india"
"283","animal","A1VHDSMEYZDNPL","college_bachDegree",NA,"asian_southAsian","male",25,"hinduism","lion","good survey. i like that",43,"BI2A00037","definitely no",-3,1461,"india"
"284","animal","A1VHDSMEYZDNPL","college_bachDegree",NA,"asian_southAsian","male",25,"hinduism","lion","good survey. i like that",44,"BI2A00038","definitely no",-3,1477,"india"
"285","animal","A1VHDSMEYZDNPL","college_bachDegree",NA,"asian_southAsian","male",25,"hinduism","lion","good survey. i like that",45,"BI2A00029","definitely no",-3,1789,"india"
"286","animal","A1VHDSMEYZDNPL","college_bachDegree",NA,"asian_southAsian","male",25,"hinduism","lion","good survey. i like that",46,"BI2A00006","maybe yes",1,1837,"india"
"287","animal","A1VHDSMEYZDNPL","college_bachDegree",NA,"asian_southAsian","male",25,"hinduism","lion","good survey. i like that",47,"BI2A00026","maybe yes",1,2247,"india"
"288","animal","A1VHDSMEYZDNPL","college_bachDegree",NA,"asian_southAsian","male",25,"hinduism","lion","good survey. i like that",48,"BI2A00015","maybe yes",1,1150,"india"
"289","animal","A1EY7SEGV94OKZ","college_bachDegree",NA,"asian_southAsian","male",36,"hinduism","tiger","nice survay",1,"BI2A00008","probably yes",2,18916,"india"
"290","animal","A1EY7SEGV94OKZ","college_bachDegree",NA,"asian_southAsian","male",36,"hinduism","tiger","nice survay",2,"BI2A00044","definitely no",-3,4147,"india"
"291","animal","A1EY7SEGV94OKZ","college_bachDegree",NA,"asian_southAsian","male",36,"hinduism","tiger","nice survay",3,"BI2A00001","probably yes",2,2284,"india"
"292","animal","A1EY7SEGV94OKZ","college_bachDegree",NA,"asian_southAsian","male",36,"hinduism","tiger","nice survay",4,"BI2A00041","definitely no",-3,2517,"india"
"293","animal","A1EY7SEGV94OKZ","college_bachDegree",NA,"asian_southAsian","male",36,"hinduism","tiger","nice survay",5,"BI2A00033","definitely no",-3,1732,"india"
"294","animal","A1EY7SEGV94OKZ","college_bachDegree",NA,"asian_southAsian","male",36,"hinduism","tiger","nice survay",6,"BI2A00004","probably yes",2,3555,"india"
"295","animal","A1EY7SEGV94OKZ","college_bachDegree",NA,"asian_southAsian","male",36,"hinduism","tiger","nice survay",7,"BI2A00030","definitely no",-3,1924,"india"
"296","animal","A1EY7SEGV94OKZ","college_bachDegree",NA,"asian_southAsian","male",36,"hinduism","tiger","nice survay",8,"BI2A00048","definitely no",-3,1134,"india"
"297","animal","A1EY7SEGV94OKZ","college_bachDegree",NA,"asian_southAsian","male",36,"hinduism","tiger","nice survay",9,"BI2A00010","maybe yes",1,4765,"india"
"298","animal","A1EY7SEGV94OKZ","college_bachDegree",NA,"asian_southAsian","male",36,"hinduism","tiger","nice survay",10,"BI2A00027","maybe yes",1,1487,"india"
"299","animal","A1EY7SEGV94OKZ","college_bachDegree",NA,"asian_southAsian","male",36,"hinduism","tiger","nice survay",11,"BI2A00047","definitely no",-3,4613,"india"
"300","animal","A1EY7SEGV94OKZ","college_bachDegree",NA,"asian_southAsian","male",36,"hinduism","tiger","nice survay",12,"BI2A00020","maybe yes",1,3069,"india"
"301","animal","A1EY7SEGV94OKZ","college_bachDegree",NA,"asian_southAsian","male",36,"hinduism","tiger","nice survay",13,"BI2A00039","definitely no",-3,1596,"india"
"302","animal","A1EY7SEGV94OKZ","college_bachDegree",NA,"asian_southAsian","male",36,"hinduism","tiger","nice survay",14,"BI2A00006","maybe yes",1,1974,"india"
"303","animal","A1EY7SEGV94OKZ","college_bachDegree",NA,"asian_southAsian","male",36,"hinduism","tiger","nice survay",15,"BI2A00043","definitely no",-3,1653,"india"
"304","animal","A1EY7SEGV94OKZ","college_bachDegree",NA,"asian_southAsian","male",36,"hinduism","tiger","nice survay",16,"BI2A00012","definitely no",-3,1998,"india"
"305","animal","A1EY7SEGV94OKZ","college_bachDegree",NA,"asian_southAsian","male",36,"hinduism","tiger","nice survay",17,"BI2A00016","maybe yes",1,4869,"india"
"306","animal","A1EY7SEGV94OKZ","college_bachDegree",NA,"asian_southAsian","male",36,"hinduism","tiger","nice survay",18,"BI2A00031","probably no",-2,2628,"india"
"307","animal","A1EY7SEGV94OKZ","college_bachDegree",NA,"asian_southAsian","male",36,"hinduism","tiger","nice survay",19,"BI2A00025","probably no",-2,1502,"india"
"308","animal","A1EY7SEGV94OKZ","college_bachDegree",NA,"asian_southAsian","male",36,"hinduism","tiger","nice survay",20,"BI2A00017","probably no",-2,1446,"india"
"309","animal","A1EY7SEGV94OKZ","college_bachDegree",NA,"asian_southAsian","male",36,"hinduism","tiger","nice survay",21,"BI2A00021","probably no",-2,1078,"india"
"310","animal","A1EY7SEGV94OKZ","college_bachDegree",NA,"asian_southAsian","male",36,"hinduism","tiger","nice survay",22,"BI2A00034","probably no",-2,1437,"india"
"311","animal","A1EY7SEGV94OKZ","college_bachDegree",NA,"asian_southAsian","male",36,"hinduism","tiger","nice survay",23,"BI2A00046","probably no",-2,1311,"india"
"312","animal","A1EY7SEGV94OKZ","college_bachDegree",NA,"asian_southAsian","male",36,"hinduism","tiger","nice survay",24,"BI2A00007","maybe yes",1,1693,"india"
"313","animal","A1EY7SEGV94OKZ","college_bachDegree",NA,"asian_southAsian","male",36,"hinduism","tiger","nice survay",25,"BI2A00040","probably no",-2,1687,"india"
"314","animal","A1EY7SEGV94OKZ","college_bachDegree",NA,"asian_southAsian","male",36,"hinduism","tiger","nice survay",26,"BI2A00009","maybe yes",1,1964,"india"
"315","animal","A1EY7SEGV94OKZ","college_bachDegree",NA,"asian_southAsian","male",36,"hinduism","tiger","nice survay",27,"BI2A00024","probably yes",2,1894,"india"
"316","animal","A1EY7SEGV94OKZ","college_bachDegree",NA,"asian_southAsian","male",36,"hinduism","tiger","nice survay",28,"BI2A00018","definitely no",-3,2116,"india"
"317","animal","A1EY7SEGV94OKZ","college_bachDegree",NA,"asian_southAsian","male",36,"hinduism","tiger","nice survay",29,"BI2A00002","probably yes",2,1902,"india"
"318","animal","A1EY7SEGV94OKZ","college_bachDegree",NA,"asian_southAsian","male",36,"hinduism","tiger","nice survay",30,"BI2A00013","probably yes",2,919,"india"
"319","animal","A1EY7SEGV94OKZ","college_bachDegree",NA,"asian_southAsian","male",36,"hinduism","tiger","nice survay",31,"BI2A00005","probably yes",2,871,"india"
"320","animal","A1EY7SEGV94OKZ","college_bachDegree",NA,"asian_southAsian","male",36,"hinduism","tiger","nice survay",32,"BI2A00032","definitely no",-3,1815,"india"
"321","animal","A1EY7SEGV94OKZ","college_bachDegree",NA,"asian_southAsian","male",36,"hinduism","tiger","nice survay",33,"BI2A00019","probably yes",2,1517,"india"
"322","animal","A1EY7SEGV94OKZ","college_bachDegree",NA,"asian_southAsian","male",36,"hinduism","tiger","nice survay",34,"BI2A00028","probably yes",2,862,"india"
"323","animal","A1EY7SEGV94OKZ","college_bachDegree",NA,"asian_southAsian","male",36,"hinduism","tiger","nice survay",35,"BI2A00011","probably yes",2,1455,"india"
"324","animal","A1EY7SEGV94OKZ","college_bachDegree",NA,"asian_southAsian","male",36,"hinduism","tiger","nice survay",36,"BI2A00037","probably yes",2,1134,"india"
"325","animal","A1EY7SEGV94OKZ","college_bachDegree",NA,"asian_southAsian","male",36,"hinduism","tiger","nice survay",37,"BI2A00003","probably yes",2,975,"india"
"326","animal","A1EY7SEGV94OKZ","college_bachDegree",NA,"asian_southAsian","male",36,"hinduism","tiger","nice survay",38,"BI2A00042","definitely no",-3,4644,"india"
"327","animal","A1EY7SEGV94OKZ","college_bachDegree",NA,"asian_southAsian","male",36,"hinduism","tiger","nice survay",39,"BI2A00014","probably yes",2,2334,"india"
"328","animal","A1EY7SEGV94OKZ","college_bachDegree",NA,"asian_southAsian","male",36,"hinduism","tiger","nice survay",40,"BI2A00045","definitely no",-3,1422,"india"
"329","animal","A1EY7SEGV94OKZ","college_bachDegree",NA,"asian_southAsian","male",36,"hinduism","tiger","nice survay",41,"BI2A00029","definitely no",-3,1422,"india"
"330","animal","A1EY7SEGV94OKZ","college_bachDegree",NA,"asian_southAsian","male",36,"hinduism","tiger","nice survay",42,"BI2A00015","probably yes",2,1614,"india"
"331","animal","A1EY7SEGV94OKZ","college_bachDegree",NA,"asian_southAsian","male",36,"hinduism","tiger","nice survay",43,"BI2A00022","probably no",-2,2004,"india"
"332","animal","A1EY7SEGV94OKZ","college_bachDegree",NA,"asian_southAsian","male",36,"hinduism","tiger","nice survay",44,"BI2A00026","probably yes",2,1694,"india"
"333","animal","A1EY7SEGV94OKZ","college_bachDegree",NA,"asian_southAsian","male",36,"hinduism","tiger","nice survay",45,"BI2A00036","probably no",-2,2135,"india"
"334","animal","A1EY7SEGV94OKZ","college_bachDegree",NA,"asian_southAsian","male",36,"hinduism","tiger","nice survay",46,"BI2A00038","probably no",-2,2222,"india"
"335","animal","A1EY7SEGV94OKZ","college_bachDegree",NA,"asian_southAsian","male",36,"hinduism","tiger","nice survay",47,"BI2A00023","probably no",-2,1918,"india"
"336","animal","A1EY7SEGV94OKZ","college_bachDegree",NA,"asian_southAsian","male",36,"hinduism","tiger","nice survay",48,"BI2A00035","probably no",-2,1422,"india"
"337","animal","AUAPLGQ19ISI0","grad_degree",NA,"asian_eastAsian","female",35,"christianity_catholic","I think, this one is an animal","",1,"BI2A00011","definitely yes",3,3044,"india"
"338","animal","AUAPLGQ19ISI0","grad_degree",NA,"asian_eastAsian","female",35,"christianity_catholic","I think, this one is an animal","",2,"BI2A00033","definitely no",-3,19585,"india"
"339","animal","AUAPLGQ19ISI0","grad_degree",NA,"asian_eastAsian","female",35,"christianity_catholic","I think, this one is an animal","",3,"BI2A00041","probably no",-2,20452,"india"
"340","animal","AUAPLGQ19ISI0","grad_degree",NA,"asian_eastAsian","female",35,"christianity_catholic","I think, this one is an animal","",4,"BI2A00046","definitely no",-3,15468,"india"
"341","animal","AUAPLGQ19ISI0","grad_degree",NA,"asian_eastAsian","female",35,"christianity_catholic","I think, this one is an animal","",5,"BI2A00043","probably no",-2,18747,"india"
"342","animal","AUAPLGQ19ISI0","grad_degree",NA,"asian_eastAsian","female",35,"christianity_catholic","I think, this one is an animal","",6,"BI2A00032","probably no",-2,18404,"india"
"343","animal","AUAPLGQ19ISI0","grad_degree",NA,"asian_eastAsian","female",35,"christianity_catholic","I think, this one is an animal","",7,"BI2A00018","probably no",-2,1851,"india"
"344","animal","AUAPLGQ19ISI0","grad_degree",NA,"asian_eastAsian","female",35,"christianity_catholic","I think, this one is an animal","",8,"BI2A00012","equally yes/no",0,2314,"india"
"345","animal","AUAPLGQ19ISI0","grad_degree",NA,"asian_eastAsian","female",35,"christianity_catholic","I think, this one is an animal","",9,"BI2A00030","definitely no",-3,19851,"india"
"346","animal","AUAPLGQ19ISI0","grad_degree",NA,"asian_eastAsian","female",35,"christianity_catholic","I think, this one is an animal","",10,"BI2A00025","definitely no",-3,9892,"india"
"347","animal","AUAPLGQ19ISI0","grad_degree",NA,"asian_eastAsian","female",35,"christianity_catholic","I think, this one is an animal","",11,"BI2A00013","probably yes",2,2490,"india"
"348","animal","AUAPLGQ19ISI0","grad_degree",NA,"asian_eastAsian","female",35,"christianity_catholic","I think, this one is an animal","",12,"BI2A00039","definitely no",-3,16634,"india"
"349","animal","AUAPLGQ19ISI0","grad_degree",NA,"asian_eastAsian","female",35,"christianity_catholic","I think, this one is an animal","",13,"BI2A00027","definitely no",-3,11603,"india"
"350","animal","AUAPLGQ19ISI0","grad_degree",NA,"asian_eastAsian","female",35,"christianity_catholic","I think, this one is an animal","",14,"BI2A00016","probably yes",2,3313,"india"
"351","animal","AUAPLGQ19ISI0","grad_degree",NA,"asian_eastAsian","female",35,"christianity_catholic","I think, this one is an animal","",15,"BI2A00047","definitely no",-3,14364,"india"
"352","animal","AUAPLGQ19ISI0","grad_degree",NA,"asian_eastAsian","female",35,"christianity_catholic","I think, this one is an animal","",16,"BI2A00034","definitely no",-3,19948,"india"
"353","animal","AUAPLGQ19ISI0","grad_degree",NA,"asian_eastAsian","female",35,"christianity_catholic","I think, this one is an animal","",17,"BI2A00042","definitely no",-3,17117,"india"
"354","animal","AUAPLGQ19ISI0","grad_degree",NA,"asian_eastAsian","female",35,"christianity_catholic","I think, this one is an animal","",18,"BI2A00017","definitely no",-3,2382,"india"
"355","animal","AUAPLGQ19ISI0","grad_degree",NA,"asian_eastAsian","female",35,"christianity_catholic","I think, this one is an animal","",19,"BI2A00031","definitely no",-3,13899,"india"
"356","animal","AUAPLGQ19ISI0","grad_degree",NA,"asian_eastAsian","female",35,"christianity_catholic","I think, this one is an animal","",20,"BI2A00022","equally yes/no",0,5153,"india"
"357","animal","AUAPLGQ19ISI0","grad_degree",NA,"asian_eastAsian","female",35,"christianity_catholic","I think, this one is an animal","",21,"BI2A00010","maybe yes",1,2420,"india"
"358","animal","AUAPLGQ19ISI0","grad_degree",NA,"asian_eastAsian","female",35,"christianity_catholic","I think, this one is an animal","",22,"BI2A00045","definitely no",-3,12156,"india"
"359","animal","AUAPLGQ19ISI0","grad_degree",NA,"asian_eastAsian","female",35,"christianity_catholic","I think, this one is an animal","",23,"BI2A00029","definitely no",-3,21,"india"
"360","animal","AUAPLGQ19ISI0","grad_degree",NA,"asian_eastAsian","female",35,"christianity_catholic","I think, this one is an animal","",24,"BI2A00035","definitely no",-3,19904,"india"
"361","animal","AUAPLGQ19ISI0","grad_degree",NA,"asian_eastAsian","female",35,"christianity_catholic","I think, this one is an animal","",25,"BI2A00002","definitely yes",3,4965,"india"
"362","animal","AUAPLGQ19ISI0","grad_degree",NA,"asian_eastAsian","female",35,"christianity_catholic","I think, this one is an animal","",26,"BI2A00048","definitely no",-3,9466,"india"
"363","animal","AUAPLGQ19ISI0","grad_degree",NA,"asian_eastAsian","female",35,"christianity_catholic","I think, this one is an animal","",27,"BI2A00026","probably yes",2,2339,"india"
"364","animal","AUAPLGQ19ISI0","grad_degree",NA,"asian_eastAsian","female",35,"christianity_catholic","I think, this one is an animal","",28,"BI2A00037","probably no",-2,12719,"india"
"365","animal","AUAPLGQ19ISI0","grad_degree",NA,"asian_eastAsian","female",35,"christianity_catholic","I think, this one is an animal","",29,"BI2A00008","definitely yes",3,1916,"india"
"366","animal","AUAPLGQ19ISI0","grad_degree",NA,"asian_eastAsian","female",35,"christianity_catholic","I think, this one is an animal","",30,"BI2A00028","equally yes/no",0,21949,"india"
"367","animal","AUAPLGQ19ISI0","grad_degree",NA,"asian_eastAsian","female",35,"christianity_catholic","I think, this one is an animal","",31,"BI2A00036","definitely no",-3,14755,"india"
"368","animal","AUAPLGQ19ISI0","grad_degree",NA,"asian_eastAsian","female",35,"christianity_catholic","I think, this one is an animal","",32,"BI2A00009","definitely yes",3,1901,"india"
"369","animal","AUAPLGQ19ISI0","grad_degree",NA,"asian_eastAsian","female",35,"christianity_catholic","I think, this one is an animal","",33,"BI2A00021","probably no",-2,1764,"india"
"370","animal","AUAPLGQ19ISI0","grad_degree",NA,"asian_eastAsian","female",35,"christianity_catholic","I think, this one is an animal","",34,"BI2A00001","definitely yes",3,1413,"india"
"371","animal","AUAPLGQ19ISI0","grad_degree",NA,"asian_eastAsian","female",35,"christianity_catholic","I think, this one is an animal","",35,"BI2A00005","definitely yes",3,781,"india"
"372","animal","AUAPLGQ19ISI0","grad_degree",NA,"asian_eastAsian","female",35,"christianity_catholic","I think, this one is an animal","",36,"BI2A00020","definitely yes",3,43,"india"
"373","animal","AUAPLGQ19ISI0","grad_degree",NA,"asian_eastAsian","female",35,"christianity_catholic","I think, this one is an animal","",37,"BI2A00014","definitely yes",3,3028,"india"
"374","animal","AUAPLGQ19ISI0","grad_degree",NA,"asian_eastAsian","female",35,"christianity_catholic","I think, this one is an animal","",38,"BI2A00004","definitely yes",3,980,"india"
"375","animal","AUAPLGQ19ISI0","grad_degree",NA,"asian_eastAsian","female",35,"christianity_catholic","I think, this one is an animal","",39,"BI2A00038","definitely no",-3,9724,"india"
"376","animal","AUAPLGQ19ISI0","grad_degree",NA,"asian_eastAsian","female",35,"christianity_catholic","I think, this one is an animal","",40,"BI2A00007","definitely yes",3,1557,"india"
"377","animal","AUAPLGQ19ISI0","grad_degree",NA,"asian_eastAsian","female",35,"christianity_catholic","I think, this one is an animal","",41,"BI2A00015","definitely yes",3,21290,"india"
"378","animal","AUAPLGQ19ISI0","grad_degree",NA,"asian_eastAsian","female",35,"christianity_catholic","I think, this one is an animal","",42,"BI2A00023","definitely no",-3,6773,"india"
"379","animal","AUAPLGQ19ISI0","grad_degree",NA,"asian_eastAsian","female",35,"christianity_catholic","I think, this one is an animal","",43,"BI2A00044","definitely no",-3,12549,"india"
"380","animal","AUAPLGQ19ISI0","grad_degree",NA,"asian_eastAsian","female",35,"christianity_catholic","I think, this one is an animal","",44,"BI2A00003","definitely yes",3,1605,"india"
"381","animal","AUAPLGQ19ISI0","grad_degree",NA,"asian_eastAsian","female",35,"christianity_catholic","I think, this one is an animal","",45,"BI2A00040","definitely no",-3,12341,"india"
"382","animal","AUAPLGQ19ISI0","grad_degree",NA,"asian_eastAsian","female",35,"christianity_catholic","I think, this one is an animal","",46,"BI2A00006","definitely yes",3,1245,"india"
"383","animal","AUAPLGQ19ISI0","grad_degree",NA,"asian_eastAsian","female",35,"christianity_catholic","I think, this one is an animal","",47,"BI2A00019","definitely yes",3,779,"india"
"384","animal","AUAPLGQ19ISI0","grad_degree",NA,"asian_eastAsian","female",35,"christianity_catholic","I think, this one is an animal","",48,"BI2A00024","definitely yes",3,1667,"india"
"385","animal","A1DLGAFXW9L95C","grad_degree",NA,"asian_southAsian","male",35,"hinduism","I think that this is an animal.","",1,"BI2A00033","definitely no",-3,7149,"india"
"386","animal","A1DLGAFXW9L95C","grad_degree",NA,"asian_southAsian","male",35,"hinduism","I think that this is an animal.","",2,"BI2A00008","definitely no",-3,3732,"india"
"387","animal","A1DLGAFXW9L95C","grad_degree",NA,"asian_southAsian","male",35,"hinduism","I think that this is an animal.","",3,"BI2A00010","maybe yes",1,4421,"india"
"388","animal","A1DLGAFXW9L95C","grad_degree",NA,"asian_southAsian","male",35,"hinduism","I think that this is an animal.","",4,"BI2A00042","definitely no",-3,1782,"india"
"389","animal","A1DLGAFXW9L95C","grad_degree",NA,"asian_southAsian","male",35,"hinduism","I think that this is an animal.","",5,"BI2A00025","definitely no",-3,2326,"india"
"390","animal","A1DLGAFXW9L95C","grad_degree",NA,"asian_southAsian","male",35,"hinduism","I think that this is an animal.","",6,"BI2A00040","definitely no",-3,1294,"india"
"391","animal","A1DLGAFXW9L95C","grad_degree",NA,"asian_southAsian","male",35,"hinduism","I think that this is an animal.","",7,"BI2A00028","maybe no",-1,4582,"india"
"392","animal","A1DLGAFXW9L95C","grad_degree",NA,"asian_southAsian","male",35,"hinduism","I think that this is an animal.","",8,"BI2A00022","maybe yes",1,3710,"india"
"393","animal","A1DLGAFXW9L95C","grad_degree",NA,"asian_southAsian","male",35,"hinduism","I think that this is an animal.","",9,"BI2A00002","maybe yes",1,1926,"india"
"394","animal","A1DLGAFXW9L95C","grad_degree",NA,"asian_southAsian","male",35,"hinduism","I think that this is an animal.","",10,"BI2A00023","definitely no",-3,1862,"india"
"395","animal","A1DLGAFXW9L95C","grad_degree",NA,"asian_southAsian","male",35,"hinduism","I think that this is an animal.","",11,"BI2A00011","probably yes",2,3389,"india"
"396","animal","A1DLGAFXW9L95C","grad_degree",NA,"asian_southAsian","male",35,"hinduism","I think that this is an animal.","",12,"BI2A00037","definitely no",-3,4467,"india"
"397","animal","A1DLGAFXW9L95C","grad_degree",NA,"asian_southAsian","male",35,"hinduism","I think that this is an animal.","",13,"BI2A00043","definitely no",-3,1390,"india"
"398","animal","A1DLGAFXW9L95C","grad_degree",NA,"asian_southAsian","male",35,"hinduism","I think that this is an animal.","",14,"BI2A00006","definitely no",-3,2390,"india"
"399","animal","A1DLGAFXW9L95C","grad_degree",NA,"asian_southAsian","male",35,"hinduism","I think that this is an animal.","",15,"BI2A00018","probably no",-2,3357,"india"
"400","animal","A1DLGAFXW9L95C","grad_degree",NA,"asian_southAsian","male",35,"hinduism","I think that this is an animal.","",16,"BI2A00021","definitely no",-3,1246,"india"
"401","animal","A1DLGAFXW9L95C","grad_degree",NA,"asian_southAsian","male",35,"hinduism","I think that this is an animal.","",17,"BI2A00015","definitely no",-3,1293,"india"
"402","animal","A1DLGAFXW9L95C","grad_degree",NA,"asian_southAsian","male",35,"hinduism","I think that this is an animal.","",18,"BI2A00005","definitely no",-3,2533,"india"
"403","animal","A1DLGAFXW9L95C","grad_degree",NA,"asian_southAsian","male",35,"hinduism","I think that this is an animal.","",19,"BI2A00036","definitely no",-3,2285,"india"
"404","animal","A1DLGAFXW9L95C","grad_degree",NA,"asian_southAsian","male",35,"hinduism","I think that this is an animal.","",20,"BI2A00014","probably no",-2,2646,"india"
"405","animal","A1DLGAFXW9L95C","grad_degree",NA,"asian_southAsian","male",35,"hinduism","I think that this is an animal.","",21,"BI2A00026","equally yes/no",0,3653,"india"
"406","animal","A1DLGAFXW9L95C","grad_degree",NA,"asian_southAsian","male",35,"hinduism","I think that this is an animal.","",22,"BI2A00034","probably no",-2,2212,"india"
"407","animal","A1DLGAFXW9L95C","grad_degree",NA,"asian_southAsian","male",35,"hinduism","I think that this is an animal.","",23,"BI2A00003","probably no",-2,2702,"india"
"408","animal","A1DLGAFXW9L95C","grad_degree",NA,"asian_southAsian","male",35,"hinduism","I think that this is an animal.","",24,"BI2A00016","maybe yes",1,3845,"india"
"409","animal","A1DLGAFXW9L95C","grad_degree",NA,"asian_southAsian","male",35,"hinduism","I think that this is an animal.","",25,"BI2A00031","definitely no",-3,1382,"india"
"410","animal","A1DLGAFXW9L95C","grad_degree",NA,"asian_southAsian","male",35,"hinduism","I think that this is an animal.","",26,"BI2A00007","definitely no",-3,1965,"india"
"411","animal","A1DLGAFXW9L95C","grad_degree",NA,"asian_southAsian","male",35,"hinduism","I think that this is an animal.","",27,"BI2A00039","definitely no",-3,2950,"india"
"412","animal","A1DLGAFXW9L95C","grad_degree",NA,"asian_southAsian","male",35,"hinduism","I think that this is an animal.","",28,"BI2A00046","definitely no",-3,1526,"india"
"413","animal","A1DLGAFXW9L95C","grad_degree",NA,"asian_southAsian","male",35,"hinduism","I think that this is an animal.","",29,"BI2A00047","definitely no",-3,1550,"india"
"414","animal","A1DLGAFXW9L95C","grad_degree",NA,"asian_southAsian","male",35,"hinduism","I think that this is an animal.","",30,"BI2A00029","probably no",-2,2526,"india"
"415","animal","A1DLGAFXW9L95C","grad_degree",NA,"asian_southAsian","male",35,"hinduism","I think that this is an animal.","",31,"BI2A00009","probably no",-2,1741,"india"
"416","animal","A1DLGAFXW9L95C","grad_degree",NA,"asian_southAsian","male",35,"hinduism","I think that this is an animal.","",32,"BI2A00032","definitely no",-3,3716,"india"
"417","animal","A1DLGAFXW9L95C","grad_degree",NA,"asian_southAsian","male",35,"hinduism","I think that this is an animal.","",33,"BI2A00013","definitely no",-3,2310,"india"
"418","animal","A1DLGAFXW9L95C","grad_degree",NA,"asian_southAsian","male",35,"hinduism","I think that this is an animal.","",34,"BI2A00041","definitely no",-3,1582,"india"
"419","animal","A1DLGAFXW9L95C","grad_degree",NA,"asian_southAsian","male",35,"hinduism","I think that this is an animal.","",35,"BI2A00027","definitely no",-3,1678,"india"
"420","animal","A1DLGAFXW9L95C","grad_degree",NA,"asian_southAsian","male",35,"hinduism","I think that this is an animal.","",36,"BI2A00001","definitely no",-3,1782,"india"
"421","animal","A1DLGAFXW9L95C","grad_degree",NA,"asian_southAsian","male",35,"hinduism","I think that this is an animal.","",37,"BI2A00048","definitely no",-3,1571,"india"
"422","animal","A1DLGAFXW9L95C","grad_degree",NA,"asian_southAsian","male",35,"hinduism","I think that this is an animal.","",38,"BI2A00024","definitely yes",3,7421,"india"
"423","animal","A1DLGAFXW9L95C","grad_degree",NA,"asian_southAsian","male",35,"hinduism","I think that this is an animal.","",39,"BI2A00019","probably yes",2,1814,"india"
"424","animal","A1DLGAFXW9L95C","grad_degree",NA,"asian_southAsian","male",35,"hinduism","I think that this is an animal.","",40,"BI2A00020","probably yes",2,2821,"india"
"425","animal","A1DLGAFXW9L95C","grad_degree",NA,"asian_southAsian","male",35,"hinduism","I think that this is an animal.","",41,"BI2A00038","definitely no",-3,1414,"india"
"426","animal","A1DLGAFXW9L95C","grad_degree",NA,"asian_southAsian","male",35,"hinduism","I think that this is an animal.","",42,"BI2A00044","definitely no",-3,1190,"india"
"427","animal","A1DLGAFXW9L95C","grad_degree",NA,"asian_southAsian","male",35,"hinduism","I think that this is an animal.","",43,"BI2A00030","definitely no",-3,926,"india"
"428","animal","A1DLGAFXW9L95C","grad_degree",NA,"asian_southAsian","male",35,"hinduism","I think that this is an animal.","",44,"BI2A00017","definitely no",-3,2054,"india"
"429","animal","A1DLGAFXW9L95C","grad_degree",NA,"asian_southAsian","male",35,"hinduism","I think that this is an animal.","",45,"BI2A00012","definitely no",-3,3094,"india"
"430","animal","A1DLGAFXW9L95C","grad_degree",NA,"asian_southAsian","male",35,"hinduism","I think that this is an animal.","",46,"BI2A00035","definitely no",-3,926,"india"
"431","animal","A1DLGAFXW9L95C","grad_degree",NA,"asian_southAsian","male",35,"hinduism","I think that this is an animal.","",47,"BI2A00045","definitely no",-3,1020,"india"
"432","animal","A1DLGAFXW9L95C","grad_degree",NA,"asian_southAsian","male",35,"hinduism","I think that this is an animal.","",48,"BI2A00004","definitely no",-3,2486,"india"
"433","animal","A38BXBQYWC6B6C","grad_degree",NA,"white","male",35,"christianity_catholic","YES","GOOD SURVEY",1,"BI2A00019","maybe yes",1,194562,"india"
"434","animal","A38BXBQYWC6B6C","grad_degree",NA,"white","male",35,"christianity_catholic","YES","GOOD SURVEY",2,"BI2A00011","definitely yes",3,9532,"india"
"435","animal","A38BXBQYWC6B6C","grad_degree",NA,"white","male",35,"christianity_catholic","YES","GOOD SURVEY",3,"BI2A00022","definitely yes",3,3370,"india"
"436","animal","A38BXBQYWC6B6C","grad_degree",NA,"white","male",35,"christianity_catholic","YES","GOOD SURVEY",4,"BI2A00046","definitely yes",3,17925,"india"
"437","animal","A38BXBQYWC6B6C","grad_degree",NA,"white","male",35,"christianity_catholic","YES","GOOD SURVEY",5,"BI2A00023","maybe yes",1,27954,"india"
"438","animal","A38BXBQYWC6B6C","grad_degree",NA,"white","male",35,"christianity_catholic","YES","GOOD SURVEY",6,"BI2A00044","definitely yes",3,2828,"india"
"439","animal","A38BXBQYWC6B6C","grad_degree",NA,"white","male",35,"christianity_catholic","YES","GOOD SURVEY",7,"BI2A00033","definitely yes",3,4081,"india"
"440","animal","A38BXBQYWC6B6C","grad_degree",NA,"white","male",35,"christianity_catholic","YES","GOOD SURVEY",8,"BI2A00039","definitely yes",3,8759,"india"
"441","animal","A38BXBQYWC6B6C","grad_degree",NA,"white","male",35,"christianity_catholic","YES","GOOD SURVEY",9,"BI2A00008","definitely yes",3,5355,"india"
"442","animal","A38BXBQYWC6B6C","grad_degree",NA,"white","male",35,"christianity_catholic","YES","GOOD SURVEY",10,"BI2A00017","definitely yes",3,460,"india"
"443","animal","A38BXBQYWC6B6C","grad_degree",NA,"white","male",35,"christianity_catholic","YES","GOOD SURVEY",11,"BI2A00015","definitely yes",3,2746,"india"
"444","animal","A38BXBQYWC6B6C","grad_degree",NA,"white","male",35,"christianity_catholic","YES","GOOD SURVEY",12,"BI2A00031","definitely yes",3,198,"india"
"445","animal","A38BXBQYWC6B6C","grad_degree",NA,"white","male",35,"christianity_catholic","YES","GOOD SURVEY",13,"BI2A00018","definitely yes",3,2329,"india"
"446","animal","A38BXBQYWC6B6C","grad_degree",NA,"white","male",35,"christianity_catholic","YES","GOOD SURVEY",14,"BI2A00047","definitely yes",3,3963,"india"
"447","animal","A38BXBQYWC6B6C","grad_degree",NA,"white","male",35,"christianity_catholic","YES","GOOD SURVEY",15,"BI2A00001","definitely yes",3,2596,"india"
"448","animal","A38BXBQYWC6B6C","grad_degree",NA,"white","male",35,"christianity_catholic","YES","GOOD SURVEY",16,"BI2A00014","definitely yes",3,2356,"india"
"449","animal","A38BXBQYWC6B6C","grad_degree",NA,"white","male",35,"christianity_catholic","YES","GOOD SURVEY",17,"BI2A00032","definitely yes",3,1522,"india"
"450","animal","A38BXBQYWC6B6C","grad_degree",NA,"white","male",35,"christianity_catholic","YES","GOOD SURVEY",18,"BI2A00012","definitely yes",3,2090,"india"
"451","animal","A38BXBQYWC6B6C","grad_degree",NA,"white","male",35,"christianity_catholic","YES","GOOD SURVEY",19,"BI2A00037","definitely yes",3,3091,"india"
"452","animal","A38BXBQYWC6B6C","grad_degree",NA,"white","male",35,"christianity_catholic","YES","GOOD SURVEY",20,"BI2A00024","definitely yes",3,1858,"india"
"453","animal","A38BXBQYWC6B6C","grad_degree",NA,"white","male",35,"christianity_catholic","YES","GOOD SURVEY",21,"BI2A00043","definitely yes",3,2997,"india"
"454","animal","A38BXBQYWC6B6C","grad_degree",NA,"white","male",35,"christianity_catholic","YES","GOOD SURVEY",22,"BI2A00040","probably yes",2,7868,"india"
"455","animal","A38BXBQYWC6B6C","grad_degree",NA,"white","male",35,"christianity_catholic","YES","GOOD SURVEY",23,"BI2A00042","probably yes",2,2908,"india"
"456","animal","A38BXBQYWC6B6C","grad_degree",NA,"white","male",35,"christianity_catholic","YES","GOOD SURVEY",24,"BI2A00020","definitely yes",3,2396,"india"
"457","animal","A38BXBQYWC6B6C","grad_degree",NA,"white","male",35,"christianity_catholic","YES","GOOD SURVEY",25,"BI2A00038","definitely yes",3,4444,"india"
"458","animal","A38BXBQYWC6B6C","grad_degree",NA,"white","male",35,"christianity_catholic","YES","GOOD SURVEY",26,"BI2A00034","definitely yes",3,3450,"india"
"459","animal","A38BXBQYWC6B6C","grad_degree",NA,"white","male",35,"christianity_catholic","YES","GOOD SURVEY",27,"BI2A00030","definitely yes",3,1794,"india"
"460","animal","A38BXBQYWC6B6C","grad_degree",NA,"white","male",35,"christianity_catholic","YES","GOOD SURVEY",28,"BI2A00029","definitely yes",3,1344,"india"
"461","animal","A38BXBQYWC6B6C","grad_degree",NA,"white","male",35,"christianity_catholic","YES","GOOD SURVEY",29,"BI2A00005","definitely yes",3,1140,"india"
"462","animal","A38BXBQYWC6B6C","grad_degree",NA,"white","male",35,"christianity_catholic","YES","GOOD SURVEY",30,"BI2A00003","definitely yes",3,1178,"india"
"463","animal","A38BXBQYWC6B6C","grad_degree",NA,"white","male",35,"christianity_catholic","YES","GOOD SURVEY",31,"BI2A00048","definitely yes",3,1403,"india"
"464","animal","A38BXBQYWC6B6C","grad_degree",NA,"white","male",35,"christianity_catholic","YES","GOOD SURVEY",32,"BI2A00028","definitely yes",3,1555,"india"
"465","animal","A38BXBQYWC6B6C","grad_degree",NA,"white","male",35,"christianity_catholic","YES","GOOD SURVEY",33,"BI2A00010","definitely yes",3,3628,"india"
"466","animal","A38BXBQYWC6B6C","grad_degree",NA,"white","male",35,"christianity_catholic","YES","GOOD SURVEY",34,"BI2A00016","definitely yes",3,3819,"india"
"467","animal","A38BXBQYWC6B6C","grad_degree",NA,"white","male",35,"christianity_catholic","YES","GOOD SURVEY",35,"BI2A00041","definitely yes",3,2613,"india"
"468","animal","A38BXBQYWC6B6C","grad_degree",NA,"white","male",35,"christianity_catholic","YES","GOOD SURVEY",36,"BI2A00026","definitely yes",3,2204,"india"
"469","animal","A38BXBQYWC6B6C","grad_degree",NA,"white","male",35,"christianity_catholic","YES","GOOD SURVEY",37,"BI2A00006","definitely yes",3,1996,"india"
"470","animal","A38BXBQYWC6B6C","grad_degree",NA,"white","male",35,"christianity_catholic","YES","GOOD SURVEY",38,"BI2A00009","definitely yes",3,1564,"india"
"471","animal","A38BXBQYWC6B6C","grad_degree",NA,"white","male",35,"christianity_catholic","YES","GOOD SURVEY",39,"BI2A00002","definitely yes",3,1244,"india"
"472","animal","A38BXBQYWC6B6C","grad_degree",NA,"white","male",35,"christianity_catholic","YES","GOOD SURVEY",40,"BI2A00045","definitely yes",3,1844,"india"
"473","animal","A38BXBQYWC6B6C","grad_degree",NA,"white","male",35,"christianity_catholic","YES","GOOD SURVEY",41,"BI2A00027","definitely yes",3,1913,"india"
"474","animal","A38BXBQYWC6B6C","grad_degree",NA,"white","male",35,"christianity_catholic","YES","GOOD SURVEY",42,"BI2A00025","definitely yes",3,1109,"india"
"475","animal","A38BXBQYWC6B6C","grad_degree",NA,"white","male",35,"christianity_catholic","YES","GOOD SURVEY",43,"BI2A00004","definitely yes",3,1250,"india"
"476","animal","A38BXBQYWC6B6C","grad_degree",NA,"white","male",35,"christianity_catholic","YES","GOOD SURVEY",44,"BI2A00021","definitely yes",3,245,"india"
"477","animal","A38BXBQYWC6B6C","grad_degree",NA,"white","male",35,"christianity_catholic","YES","GOOD SURVEY",45,"BI2A00036","definitely yes",3,1035,"india"
"478","animal","A38BXBQYWC6B6C","grad_degree",NA,"white","male",35,"christianity_catholic","YES","GOOD SURVEY",46,"BI2A00035","definitely yes",3,260,"india"
"479","animal","A38BXBQYWC6B6C","grad_degree",NA,"white","male",35,"christianity_catholic","YES","GOOD SURVEY",47,"BI2A00013","definitely yes",3,882,"india"
"480","animal","A38BXBQYWC6B6C","grad_degree",NA,"white","male",35,"christianity_catholic","YES","GOOD SURVEY",48,"BI2A00007","definitely yes",3,301,"india"
"481","animal","ASJSRTPWPGMVW","college_bachDegree",NA,"asian_southAsian","female",23,"islam","This is an animal","",1,"BI2A00018","maybe yes",1,5034,"india"
"482","animal","ASJSRTPWPGMVW","college_bachDegree",NA,"asian_southAsian","female",23,"islam","This is an animal","",2,"BI2A00013","definitely yes",3,4147,"india"
"483","animal","ASJSRTPWPGMVW","college_bachDegree",NA,"asian_southAsian","female",23,"islam","This is an animal","",3,"BI2A00044","definitely no",-3,3191,"india"
"484","animal","ASJSRTPWPGMVW","college_bachDegree",NA,"asian_southAsian","female",23,"islam","This is an animal","",4,"BI2A00006","definitely yes",3,2222,"india"
"485","animal","ASJSRTPWPGMVW","college_bachDegree",NA,"asian_southAsian","female",23,"islam","This is an animal","",5,"BI2A00031","maybe yes",1,2797,"india"
"486","animal","ASJSRTPWPGMVW","college_bachDegree",NA,"asian_southAsian","female",23,"islam","This is an animal","",6,"BI2A00015","probably yes",2,2568,"india"
"487","animal","ASJSRTPWPGMVW","college_bachDegree",NA,"asian_southAsian","female",23,"islam","This is an animal","",7,"BI2A00005","maybe yes",1,1457,"india"
"488","animal","ASJSRTPWPGMVW","college_bachDegree",NA,"asian_southAsian","female",23,"islam","This is an animal","",8,"BI2A00033","probably no",-2,1877,"india"
"489","animal","ASJSRTPWPGMVW","college_bachDegree",NA,"asian_southAsian","female",23,"islam","This is an animal","",9,"BI2A00026","equally yes/no",0,4016,"india"
"490","animal","ASJSRTPWPGMVW","college_bachDegree",NA,"asian_southAsian","female",23,"islam","This is an animal","",10,"BI2A00019","probably yes",2,1911,"india"
"491","animal","ASJSRTPWPGMVW","college_bachDegree",NA,"asian_southAsian","female",23,"islam","This is an animal","",11,"BI2A00024","definitely yes",3,2390,"india"
"492","animal","ASJSRTPWPGMVW","college_bachDegree",NA,"asian_southAsian","female",23,"islam","This is an animal","",12,"BI2A00032","maybe no",-1,2127,"india"
"493","animal","ASJSRTPWPGMVW","college_bachDegree",NA,"asian_southAsian","female",23,"islam","This is an animal","",13,"BI2A00028","maybe no",-1,2726,"india"
"494","animal","ASJSRTPWPGMVW","college_bachDegree",NA,"asian_southAsian","female",23,"islam","This is an animal","",14,"BI2A00002","definitely yes",3,2138,"india"
"495","animal","ASJSRTPWPGMVW","college_bachDegree",NA,"asian_southAsian","female",23,"islam","This is an animal","",15,"BI2A00041","maybe no",-1,3319,"india"
"496","animal","ASJSRTPWPGMVW","college_bachDegree",NA,"asian_southAsian","female",23,"islam","This is an animal","",16,"BI2A00047","equally yes/no",0,4139,"india"
"497","animal","ASJSRTPWPGMVW","college_bachDegree",NA,"asian_southAsian","female",23,"islam","This is an animal","",17,"BI2A00016","maybe yes",1,2112,"india"
"498","animal","ASJSRTPWPGMVW","college_bachDegree",NA,"asian_southAsian","female",23,"islam","This is an animal","",18,"BI2A00011","definitely yes",3,1789,"india"
"499","animal","ASJSRTPWPGMVW","college_bachDegree",NA,"asian_southAsian","female",23,"islam","This is an animal","",19,"BI2A00027","probably no",-2,3630,"india"
"500","animal","ASJSRTPWPGMVW","college_bachDegree",NA,"asian_southAsian","female",23,"islam","This is an animal","",20,"BI2A00004","probably yes",2,1777,"india"
"501","animal","ASJSRTPWPGMVW","college_bachDegree",NA,"asian_southAsian","female",23,"islam","This is an animal","",21,"BI2A00039","maybe no",-1,2908,"india"
"502","animal","ASJSRTPWPGMVW","college_bachDegree",NA,"asian_southAsian","female",23,"islam","This is an animal","",22,"BI2A00020","probably yes",2,1955,"india"
"503","animal","ASJSRTPWPGMVW","college_bachDegree",NA,"asian_southAsian","female",23,"islam","This is an animal","",23,"BI2A00045","definitely no",-3,2112,"india"
"504","animal","ASJSRTPWPGMVW","college_bachDegree",NA,"asian_southAsian","female",23,"islam","This is an animal","",24,"BI2A00042","probably no",-2,3452,"india"
"505","animal","ASJSRTPWPGMVW","college_bachDegree",NA,"asian_southAsian","female",23,"islam","This is an animal","",25,"BI2A00022","maybe no",-1,1542,"india"
"506","animal","ASJSRTPWPGMVW","college_bachDegree",NA,"asian_southAsian","female",23,"islam","This is an animal","",26,"BI2A00035","definitely no",-3,2434,"india"
"507","animal","ASJSRTPWPGMVW","college_bachDegree",NA,"asian_southAsian","female",23,"islam","This is an animal","",27,"BI2A00021","maybe no",-1,1741,"india"
"508","animal","ASJSRTPWPGMVW","college_bachDegree",NA,"asian_southAsian","female",23,"islam","This is an animal","",28,"BI2A00043","probably no",-2,1624,"india"
"509","animal","ASJSRTPWPGMVW","college_bachDegree",NA,"asian_southAsian","female",23,"islam","This is an animal","",29,"BI2A00001","definitely yes",3,2989,"india"
"510","animal","ASJSRTPWPGMVW","college_bachDegree",NA,"asian_southAsian","female",23,"islam","This is an animal","",30,"BI2A00040","maybe no",-1,2411,"india"
"511","animal","ASJSRTPWPGMVW","college_bachDegree",NA,"asian_southAsian","female",23,"islam","This is an animal","",31,"BI2A00003","probably yes",2,6461,"india"
"512","animal","ASJSRTPWPGMVW","college_bachDegree",NA,"asian_southAsian","female",23,"islam","This is an animal","",32,"BI2A00029","equally yes/no",0,1874,"india"
"513","animal","ASJSRTPWPGMVW","college_bachDegree",NA,"asian_southAsian","female",23,"islam","This is an animal","",33,"BI2A00014","equally yes/no",0,1407,"india"
"514","animal","ASJSRTPWPGMVW","college_bachDegree",NA,"asian_southAsian","female",23,"islam","This is an animal","",34,"BI2A00010","maybe no",-1,2247,"india"
"515","animal","ASJSRTPWPGMVW","college_bachDegree",NA,"asian_southAsian","female",23,"islam","This is an animal","",35,"BI2A00023","maybe no",-1,2615,"india"
"516","animal","ASJSRTPWPGMVW","college_bachDegree",NA,"asian_southAsian","female",23,"islam","This is an animal","",36,"BI2A00036","equally yes/no",0,1480,"india"
"517","animal","ASJSRTPWPGMVW","college_bachDegree",NA,"asian_southAsian","female",23,"islam","This is an animal","",37,"BI2A00012","maybe no",-1,2223,"india"
"518","animal","ASJSRTPWPGMVW","college_bachDegree",NA,"asian_southAsian","female",23,"islam","This is an animal","",38,"BI2A00007","probably yes",2,1876,"india"
"519","animal","ASJSRTPWPGMVW","college_bachDegree",NA,"asian_southAsian","female",23,"islam","This is an animal","",39,"BI2A00025","maybe yes",1,2268,"india"
"520","animal","ASJSRTPWPGMVW","college_bachDegree",NA,"asian_southAsian","female",23,"islam","This is an animal","",40,"BI2A00017","probably no",-2,1816,"india"
"521","animal","ASJSRTPWPGMVW","college_bachDegree",NA,"asian_southAsian","female",23,"islam","This is an animal","",41,"BI2A00009","probably yes",2,7405,"india"
"522","animal","ASJSRTPWPGMVW","college_bachDegree",NA,"asian_southAsian","female",23,"islam","This is an animal","",42,"BI2A00037","maybe no",-1,2533,"india"
"523","animal","ASJSRTPWPGMVW","college_bachDegree",NA,"asian_southAsian","female",23,"islam","This is an animal","",43,"BI2A00034","probably no",-2,2092,"india"
"524","animal","ASJSRTPWPGMVW","college_bachDegree",NA,"asian_southAsian","female",23,"islam","This is an animal","",44,"BI2A00008","probably yes",2,2342,"india"
"525","animal","ASJSRTPWPGMVW","college_bachDegree",NA,"asian_southAsian","female",23,"islam","This is an animal","",45,"BI2A00046","definitely no",-3,3149,"india"
"526","animal","ASJSRTPWPGMVW","college_bachDegree",NA,"asian_southAsian","female",23,"islam","This is an animal","",46,"BI2A00048","equally yes/no",0,4767,"india"
"527","animal","ASJSRTPWPGMVW","college_bachDegree",NA,"asian_southAsian","female",23,"islam","This is an animal","",47,"BI2A00030","maybe no",-1,2186,"india"
"528","animal","ASJSRTPWPGMVW","college_bachDegree",NA,"asian_southAsian","female",23,"islam","This is an animal","",48,"BI2A00038","probably no",-2,1736,"india"
"529","animal","A3A1NOWBA4ULQA","college_bachDegree",NA,"asian_otherAsian","male",26,"islam","this is an animal","",1,"BI2A00037","definitely no",-3,16169,"india"
"530","animal","A3A1NOWBA4ULQA","college_bachDegree",NA,"asian_otherAsian","male",26,"islam","this is an animal","",2,"BI2A00038","definitely no",-3,2601,"india"
"531","animal","A3A1NOWBA4ULQA","college_bachDegree",NA,"asian_otherAsian","male",26,"islam","this is an animal","",3,"BI2A00030","definitely no",-3,1900,"india"
"532","animal","A3A1NOWBA4ULQA","college_bachDegree",NA,"asian_otherAsian","male",26,"islam","this is an animal","",4,"BI2A00034","definitely no",-3,2949,"india"
"533","animal","A3A1NOWBA4ULQA","college_bachDegree",NA,"asian_otherAsian","male",26,"islam","this is an animal","",5,"BI2A00027","definitely no",-3,2447,"india"
"534","animal","A3A1NOWBA4ULQA","college_bachDegree",NA,"asian_otherAsian","male",26,"islam","this is an animal","",6,"BI2A00012","equally yes/no",0,11751,"india"
"535","animal","A3A1NOWBA4ULQA","college_bachDegree",NA,"asian_otherAsian","male",26,"islam","this is an animal","",7,"BI2A00046","definitely no",-3,2032,"india"
"536","animal","A3A1NOWBA4ULQA","college_bachDegree",NA,"asian_otherAsian","male",26,"islam","this is an animal","",8,"BI2A00047","definitely no",-3,14882,"india"
"537","animal","A3A1NOWBA4ULQA","college_bachDegree",NA,"asian_otherAsian","male",26,"islam","this is an animal","",9,"BI2A00016","maybe no",-1,4528,"india"
"538","animal","A3A1NOWBA4ULQA","college_bachDegree",NA,"asian_otherAsian","male",26,"islam","this is an animal","",10,"BI2A00031","maybe no",-1,2400,"india"
"539","animal","A3A1NOWBA4ULQA","college_bachDegree",NA,"asian_otherAsian","male",26,"islam","this is an animal","",11,"BI2A00011","definitely yes",3,5651,"india"
"540","animal","A3A1NOWBA4ULQA","college_bachDegree",NA,"asian_otherAsian","male",26,"islam","this is an animal","",12,"BI2A00005","definitely yes",3,1581,"india"
